"partic","stage","block","trial","stim","resp","rt","fruitL","fruitR","outcome","date"
1,2,1,1,"A","7",6.237,"","orange","","2016_Nov_15_1115"
1,2,1,2,"B","6",2.424,"","apple","","2016_Nov_15_1115"
1,2,1,3,"Y","8",3.925,"strawberry","","","2016_Nov_15_1115"
1,2,1,4,"C","1",2.315,"","pear","","2016_Nov_15_1115"
1,2,1,5,"B","5",1.615,"apple","","","2016_Nov_15_1115"
1,2,1,6,"Y","6",2.534,"","strawberry","","2016_Nov_15_1115"
1,2,1,7,"X","8",2.112,"banana","","","2016_Nov_15_1115"
1,2,1,8,"X","8",2.27,"","banana","","2016_Nov_15_1115"
1,2,1,9,"A","9",1.535,"orange","","","2016_Nov_15_1115"
1,2,1,10,"C","1",2.487,"pear","","","2016_Nov_15_1115"
1,2,2,11,"B","5",1.331,"apple","","","2016_Nov_15_1115"
1,2,2,12,"Y","6",1.737,"","strawberry","","2016_Nov_15_1115"
1,2,2,13,"A","8",1.378,"","orange","","2016_Nov_15_1115"
1,2,2,14,"X","8",3.425,"","banana","","2016_Nov_15_1115"
1,2,2,15,"A","8",1.94,"orange","","","2016_Nov_15_1115"
1,2,2,16,"X","8",2.393,"banana","","","2016_Nov_15_1115"
1,2,2,17,"C","1",1.425,"","pear","","2016_Nov_15_1115"
1,2,2,18,"C","1",1.956,"pear","","","2016_Nov_15_1115"
1,2,2,19,"Y","7",1.503,"strawberry","","","2016_Nov_15_1115"
1,2,2,20,"B","6",1.643,"","apple","","2016_Nov_15_1115"
1,2,3,21,"A","8",1.893,"","orange","","2016_Nov_15_1115"
1,2,3,22,"C","1",2.083,"","pear","","2016_Nov_15_1115"
1,2,3,23,"A","8",1.222,"orange","","","2016_Nov_15_1115"
1,2,3,24,"Y","7",1.518,"","strawberry","","2016_Nov_15_1115"
1,2,3,25,"Y","7",0.927,"strawberry","","","2016_Nov_15_1115"
1,2,3,26,"X","8",1.675,"banana","","","2016_Nov_15_1115"
1,2,3,27,"C","1",1.488,"pear","","","2016_Nov_15_1115"
1,2,3,28,"B","7",1.112,"","apple","","2016_Nov_15_1115"
1,2,3,29,"X","7",0.925,"","banana","","2016_Nov_15_1115"
1,2,3,30,"B","5",3.206,"apple","","","2016_Nov_15_1115"
1,2,4,31,"Y","5",0.893,"","strawberry","","2016_Nov_15_1115"
1,2,4,32,"X","7",1.425,"","banana","","2016_Nov_15_1115"
1,2,4,33,"A","8",1.8,"","orange","","2016_Nov_15_1115"
1,2,4,34,"B","8",3.958,"","apple","","2016_Nov_15_1115"
1,2,4,35,"X","7",1.268,"banana","","","2016_Nov_15_1115"
1,2,4,36,"B","7",1.238,"apple","","","2016_Nov_15_1115"
1,2,4,37,"A","7",0.927,"orange","","","2016_Nov_15_1115"
1,2,4,38,"C","1",1.597,"","pear","","2016_Nov_15_1115"
1,2,4,39,"Y","5",1.581,"strawberry","","","2016_Nov_15_1115"
1,2,4,40,"C","1",1.581,"pear","","","2016_Nov_15_1115"
1,2,5,41,"C","1",1.208,"pear","","","2016_Nov_15_1115"
1,2,5,42,"X","8",2.536,"banana","","","2016_Nov_15_1115"
1,2,5,43,"C","1",1.675,"","pear","","2016_Nov_15_1115"
1,2,5,44,"A","8",1.612,"","orange","","2016_Nov_15_1115"
1,2,5,45,"B","7",1.815,"","apple","","2016_Nov_15_1115"
1,2,5,46,"X","5",1.598,"","banana","","2016_Nov_15_1115"
1,2,5,47,"Y","7",2.253,"strawberry","","","2016_Nov_15_1115"
1,2,5,48,"A","9",1.706,"orange","","","2016_Nov_15_1115"
1,2,5,49,"B","7",2.708,"apple","","","2016_Nov_15_1115"
1,2,5,50,"Y","5",1.534,"","strawberry","","2016_Nov_15_1115"
1,2,6,51,"A","10",1.332,"orange","","","2016_Nov_15_1115"
1,2,6,52,"C","0",1.503,"pear","","","2016_Nov_15_1115"
1,2,6,53,"B","5",2.206,"","apple","","2016_Nov_15_1115"
1,2,6,54,"Y","5",0.518,"","strawberry","","2016_Nov_15_1115"
1,2,6,55,"A","10",1.143,"","orange","","2016_Nov_15_1115"
1,2,6,56,"C","0",1.362,"","pear","","2016_Nov_15_1115"
1,2,6,57,"X","6",1.268,"banana","","","2016_Nov_15_1115"
1,2,6,58,"Y","5",1.19,"strawberry","","","2016_Nov_15_1115"
1,2,6,59,"X","5",1.315,"","banana","","2016_Nov_15_1115"
1,2,6,60,"B","5",0.924,"apple","","","2016_Nov_15_1115"
1,4,1,1,"X","7",4.537,"banana","","","2016_Nov_15_1115"
1,4,1,2,"A","10",1.455,"","orange","","2016_Nov_15_1115"
1,4,1,3,"A","10",1.208,"orange","","","2016_Nov_15_1115"
1,4,1,4,"X","7",1.174,"","banana","","2016_Nov_15_1115"
1,4,1,5,"B","7",1.237,"","apple","","2016_Nov_15_1115"
1,4,1,6,"Y","6",1.753,"","strawberry","","2016_Nov_15_1115"
1,4,1,7,"Y","6",1.081,"strawberry","","","2016_Nov_15_1115"
1,4,1,8,"B","7",1.018,"apple","","","2016_Nov_15_1115"
1,4,1,9,"C","0",1.393,"pear","","","2016_Nov_15_1115"
1,4,1,10,"C","0",1.049,"","pear","","2016_Nov_15_1115"
1,4,2,11,"Y","5",1.346,"strawberry","","","2016_Nov_15_1115"
1,4,2,12,"X","6",1.425,"","banana","","2016_Nov_15_1115"
1,4,2,13,"B","6",0.724,"apple","","","2016_Nov_15_1115"
1,4,2,14,"X","5",0.893,"banana","","","2016_Nov_15_1115"
1,4,2,15,"C","0",1.065,"pear","","","2016_Nov_15_1115"
1,4,2,16,"C","0",1.191,"","pear","","2016_Nov_15_1115"
1,4,2,17,"B","5",1.613,"","apple","","2016_Nov_15_1115"
1,4,2,18,"A","5",0.565,"","orange","","2016_Nov_15_1115"
1,4,2,19,"A","10",0.909,"orange","","","2016_Nov_15_1115"
1,4,2,20,"Y","6",0.896,"","strawberry","","2016_Nov_15_1115"
1,4,3,21,"C","0",1.628,"","pear","","2016_Nov_15_1115"
1,4,3,22,"Y","6",0.862,"strawberry","","","2016_Nov_15_1115"
1,4,3,23,"A","10",1.518,"orange","","","2016_Nov_15_1115"
1,4,3,24,"B","9",1.238,"","apple","","2016_Nov_15_1115"
1,4,3,25,"B","5",1.3,"apple","","","2016_Nov_15_1115"
1,4,3,26,"X","7",1.627,"","banana","","2016_Nov_15_1115"
1,4,3,27,"A","10",0.799,"","orange","","2016_Nov_15_1115"
1,4,3,28,"Y","5",1.393,"","strawberry","","2016_Nov_15_1115"
1,4,3,29,"C","0",1.206,"pear","","","2016_Nov_15_1115"
1,4,3,30,"X","5",1.768,"banana","","","2016_Nov_15_1115"
1,4,4,31,"C","0",1.206,"pear","","","2016_Nov_15_1115"
1,4,4,32,"X","8",0.972,"banana","","","2016_Nov_15_1115"
1,4,4,33,"B","6",1.049,"apple","","","2016_Nov_15_1115"
1,4,4,34,"A","10",1.829,"orange","","","2016_Nov_15_1115"
1,4,4,35,"A","10",0.581,"","orange","","2016_Nov_15_1115"
1,4,4,36,"X","5",1.424,"","banana","","2016_Nov_15_1115"
1,4,4,37,"C","0",1.006,"","pear","","2016_Nov_15_1115"
1,4,4,38,"Y","5",0.801,"strawberry","","","2016_Nov_15_1115"
1,4,4,39,"B","4",0.893,"","apple","","2016_Nov_15_1115"
1,4,4,40,"Y","5",1.3,"","strawberry","","2016_Nov_15_1115"
1,4,5,41,"C","0",0.94,"pear","","","2016_Nov_15_1115"
1,4,5,42,"A","9",0.94,"","orange","","2016_Nov_15_1115"
1,4,5,43,"Y","5",1.081,"","strawberry","","2016_Nov_15_1115"
1,4,5,44,"A","10",0.956,"orange","","","2016_Nov_15_1115"
1,4,5,45,"C","0",1.643,"","pear","","2016_Nov_15_1115"
1,4,5,46,"B","7",1.268,"apple","","","2016_Nov_15_1115"
1,4,5,47,"X","6",0.958,"","banana","","2016_Nov_15_1115"
1,4,5,48,"Y","6",0.675,"strawberry","","","2016_Nov_15_1115"
1,4,5,49,"X","7",1.459,"banana","","","2016_Nov_15_1115"
1,4,5,50,"B","6",1.301,"","apple","","2016_Nov_15_1115"
1,4,6,51,"X","7",0.834,"","banana","","2016_Nov_15_1115"
1,4,6,52,"A","10",1.268,"","orange","","2016_Nov_15_1115"
1,4,6,53,"B","5",1.034,"","apple","","2016_Nov_15_1115"
1,4,6,54,"X","5",1.131,"banana","","","2016_Nov_15_1115"
1,4,6,55,"C","0",1.612,"pear","","","2016_Nov_15_1115"
1,4,6,56,"Y","5",0.799,"","strawberry","","2016_Nov_15_1115"
1,4,6,57,"Y","5",0.957,"strawberry","","","2016_Nov_15_1115"
1,4,6,58,"A","10",1.081,"orange","","","2016_Nov_15_1115"
1,4,6,59,"B","5",0.83,"apple","","","2016_Nov_15_1115"
1,4,6,60,"C","0",1.159,"","pear","","2016_Nov_15_1115"
2,2,1,1,"X","8",12.866,"apple","","","2016_Nov_15_1017"
2,2,1,2,"A","9",2.959,"","banana","","2016_Nov_15_1017"
2,2,1,3,"X","8",3.396,"","apple","","2016_Nov_15_1017"
2,2,1,4,"Y","8",4.722,"","strawberry","","2016_Nov_15_1017"
2,2,1,5,"C","0",3.628,"","orange","","2016_Nov_15_1017"
2,2,1,6,"C","0",2.036,"orange","","","2016_Nov_15_1017"
2,2,1,7,"Y","8",4.596,"strawberry","","","2016_Nov_15_1017"
2,2,1,8,"B","8",2.383,"pear","","","2016_Nov_15_1017"
2,2,1,9,"A","10",2.518,"banana","","","2016_Nov_15_1017"
2,2,1,10,"B","8",2.721,"","pear","","2016_Nov_15_1017"
2,2,2,11,"A","10",1.771,"","banana","","2016_Nov_15_1017"
2,2,2,12,"B","8",3.346,"pear","","","2016_Nov_15_1017"
2,2,2,13,"Y","9",3.193,"strawberry","","","2016_Nov_15_1017"
2,2,2,14,"X","8",2.99,"apple","","","2016_Nov_15_1017"
2,2,2,15,"A","10",1.614,"banana","","","2016_Nov_15_1017"
2,2,2,16,"C","0",2.709,"orange","","","2016_Nov_15_1017"
2,2,2,17,"C","0",0.928,"","orange","","2016_Nov_15_1017"
2,2,2,18,"X","8",1.77,"","apple","","2016_Nov_15_1017"
2,2,2,19,"B","8",1.592,"","pear","","2016_Nov_15_1017"
2,2,2,20,"Y","8",1.876,"","strawberry","","2016_Nov_15_1017"
2,2,3,21,"A","10",1.693,"banana","","","2016_Nov_15_1017"
2,2,3,22,"X","8",1.409,"apple","","","2016_Nov_15_1017"
2,2,3,23,"Y","8",1.862,"","strawberry","","2016_Nov_15_1017"
2,2,3,24,"B","8",0.972,"pear","","","2016_Nov_15_1017"
2,2,3,25,"A","10",1.238,"","banana","","2016_Nov_15_1017"
2,2,3,26,"Y","8",1.893,"strawberry","","","2016_Nov_15_1017"
2,2,3,27,"C","0",1.565,"orange","","","2016_Nov_15_1017"
2,2,3,28,"C","0",1.065,"","orange","","2016_Nov_15_1017"
2,2,3,29,"X","8",1.956,"","apple","","2016_Nov_15_1017"
2,2,3,30,"B","8",2.128,"","pear","","2016_Nov_15_1017"
2,2,4,31,"X","8",0.928,"apple","","","2016_Nov_15_1017"
2,2,4,32,"Y","8",0.815,"","strawberry","","2016_Nov_15_1017"
2,2,4,33,"B","8",4.394,"","pear","","2016_Nov_15_1017"
2,2,4,34,"C","0",1.128,"orange","","","2016_Nov_15_1017"
2,2,4,35,"B","10",1.268,"pear","","","2016_Nov_15_1017"
2,2,4,36,"C","0",1.987,"","orange","","2016_Nov_15_1017"
2,2,4,37,"X","9",1.269,"","apple","","2016_Nov_15_1017"
2,2,4,38,"Y","9",1.331,"strawberry","","","2016_Nov_15_1017"
2,2,4,39,"A","10",1.426,"banana","","","2016_Nov_15_1017"
2,2,4,40,"A","10",1.034,"","banana","","2016_Nov_15_1017"
2,2,5,41,"Y","9",0.971,"","strawberry","","2016_Nov_15_1017"
2,2,5,42,"B","9",0.784,"pear","","","2016_Nov_15_1017"
2,2,5,43,"C","0",1.161,"orange","","","2016_Nov_15_1017"
2,2,5,44,"X","9",1.616,"apple","","","2016_Nov_15_1017"
2,2,5,45,"Y","9",0.614,"strawberry","","","2016_Nov_15_1017"
2,2,5,46,"A","10",1.146,"","banana","","2016_Nov_15_1017"
2,2,5,47,"C","0",1.395,"","orange","","2016_Nov_15_1017"
2,2,5,48,"A","10",1.458,"banana","","","2016_Nov_15_1017"
2,2,5,49,"X","9",0.833,"","apple","","2016_Nov_15_1017"
2,2,5,50,"B","9",1.444,"","pear","","2016_Nov_15_1017"
2,2,6,51,"A","10",0.755,"","banana","","2016_Nov_15_1017"
2,2,6,52,"Y","9",0.739,"","strawberry","","2016_Nov_15_1017"
2,2,6,53,"C","0",1.739,"orange","","","2016_Nov_15_1017"
2,2,6,54,"Y","9",1.225,"strawberry","","","2016_Nov_15_1017"
2,2,6,55,"X","9",0.818,"apple","","","2016_Nov_15_1017"
2,2,6,56,"B","9",0.599,"","pear","","2016_Nov_15_1017"
2,2,6,57,"X","9",0.427,"","apple","","2016_Nov_15_1017"
2,2,6,58,"A","10",1.021,"banana","","","2016_Nov_15_1017"
2,2,6,59,"C","0",1.255,"","orange","","2016_Nov_15_1017"
2,2,6,60,"B","9",1.052,"pear","","","2016_Nov_15_1017"
2,4,1,1,"X","10",3.367,"","apple","","2016_Nov_15_1017"
2,4,1,2,"B","10",0.802,"pear","","","2016_Nov_15_1017"
2,4,1,3,"Y","10",0.802,"","strawberry","","2016_Nov_15_1017"
2,4,1,4,"Y","10",0.489,"strawberry","","","2016_Nov_15_1017"
2,4,1,5,"C","0",1.318,"orange","","","2016_Nov_15_1017"
2,4,1,6,"X","10",1.755,"apple","","","2016_Nov_15_1017"
2,4,1,7,"A","10",0.974,"","banana","","2016_Nov_15_1017"
2,4,1,8,"B","10",1.195,"","pear","","2016_Nov_15_1017"
2,4,1,9,"A","10",2.476,"banana","","","2016_Nov_15_1017"
2,4,1,10,"C","0",2.427,"","orange","","2016_Nov_15_1017"
2,4,2,11,"C","0",0.552,"orange","","","2016_Nov_15_1017"
2,4,2,12,"A","10",1.083,"","banana","","2016_Nov_15_1017"
2,4,2,13,"Y","10",0.489,"","strawberry","","2016_Nov_15_1017"
2,4,2,14,"B","10",0.489,"","pear","","2016_Nov_15_1017"
2,4,2,15,"X","10",0.444,"","apple","","2016_Nov_15_1017"
2,4,2,16,"C","0",1.505,"","orange","","2016_Nov_15_1017"
2,4,2,17,"A","10",1.255,"banana","","","2016_Nov_15_1017"
2,4,2,18,"Y","10",0.927,"strawberry","","","2016_Nov_15_1017"
2,4,2,19,"B","10",0.427,"pear","","","2016_Nov_15_1017"
2,4,2,20,"X","10",0.427,"apple","","","2016_Nov_15_1017"
2,4,3,21,"C","0",1.161,"orange","","","2016_Nov_15_1017"
2,4,3,22,"B","10",1.146,"","pear","","2016_Nov_15_1017"
2,4,3,23,"Y","10",0.427,"strawberry","","","2016_Nov_15_1017"
2,4,3,24,"C","10",0.445,"","orange","","2016_Nov_15_1017"
2,4,3,25,"B","10",1.989,"pear","","","2016_Nov_15_1017"
2,4,3,26,"A","10",1.492,"banana","","","2016_Nov_15_1017"
2,4,3,27,"X","10",0.724,"apple","","","2016_Nov_15_1017"
2,4,3,28,"X","10",0.614,"","apple","","2016_Nov_15_1017"
2,4,3,29,"Y","10",0.492,"","strawberry","","2016_Nov_15_1017"
2,4,3,30,"A","10",0.507,"","banana","","2016_Nov_15_1017"
2,4,4,31,"X","10",0.552,"apple","","","2016_Nov_15_1017"
2,4,4,32,"A","10",0.489,"banana","","","2016_Nov_15_1017"
2,4,4,33,"C","0",1.271,"","orange","","2016_Nov_15_1017"
2,4,4,34,"X","10",1.333,"","apple","","2016_Nov_15_1017"
2,4,4,35,"Y","10",0.489,"strawberry","","","2016_Nov_15_1017"
2,4,4,36,"B","10",0.944,"","pear","","2016_Nov_15_1017"
2,4,4,37,"B","10",1.178,"pear","","","2016_Nov_15_1017"
2,4,4,38,"Y","10",1.083,"","strawberry","","2016_Nov_15_1017"
2,4,4,39,"C","0",2.818,"orange","","","2016_Nov_15_1017"
2,4,4,40,"A","10",1.943,"","banana","","2016_Nov_15_1017"
2,4,5,41,"A","10",0.444,"","banana","","2016_Nov_15_1017"
2,4,5,42,"Y","10",0.757,"strawberry","","","2016_Nov_15_1017"
2,4,5,43,"C","0",1.161,"orange","","","2016_Nov_15_1017"
2,4,5,44,"C","0",1.38,"","orange","","2016_Nov_15_1017"
2,4,5,45,"B","10",3.193,"pear","","","2016_Nov_15_1017"
2,4,5,46,"X","10",0.927,"","apple","","2016_Nov_15_1017"
2,4,5,47,"B","10",0.552,"","pear","","2016_Nov_15_1017"
2,4,5,48,"A","10",0.507,"banana","","","2016_Nov_15_1017"
2,4,5,49,"X","10",1.194,"apple","","","2016_Nov_15_1017"
2,4,5,50,"Y","10",0.552,"","strawberry","","2016_Nov_15_1017"
2,4,6,51,"Y","10",0.615,"strawberry","","","2016_Nov_15_1017"
2,4,6,52,"C","0",1.07,"orange","","","2016_Nov_15_1017"
2,4,6,53,"X","9",2.32,"","apple","","2016_Nov_15_1017"
2,4,6,54,"A","10",0.802,"banana","","","2016_Nov_15_1017"
2,4,6,55,"B","10",0.695,"","pear","","2016_Nov_15_1017"
2,4,6,56,"X","10",0.507,"apple","","","2016_Nov_15_1017"
2,4,6,57,"Y","10",0.615,"","strawberry","","2016_Nov_15_1017"
2,4,6,58,"B","10",0.552,"pear","","","2016_Nov_15_1017"
2,4,6,59,"C","0",2.615,"","orange","","2016_Nov_15_1017"
2,4,6,60,"A","10",1.114,"","banana","","2016_Nov_15_1017"
3,2,1,1,"Y","1",6.552,"pear","","","2016_Nov_15_1141"
3,2,1,2,"Y","1",1.927,"","pear","","2016_Nov_15_1141"
3,2,1,3,"B","9",2.927,"banana","","","2016_Nov_15_1141"
3,2,1,4,"X","1",2.115,"","apple","","2016_Nov_15_1141"
3,2,1,5,"A","9",2.177,"strawberry","","","2016_Nov_15_1141"
3,2,1,6,"X","1",2.333,"apple","","","2016_Nov_15_1141"
3,2,1,7,"C","1",1.755,"orange","","","2016_Nov_15_1141"
3,2,1,8,"C","1",1.005,"","orange","","2016_Nov_15_1141"
3,2,1,9,"A","9",1.38,"","strawberry","","2016_Nov_15_1141"
3,2,1,10,"B","9",1.052,"","banana","","2016_Nov_15_1141"
3,2,2,11,"A","9",0.632,"strawberry","","","2016_Nov_15_1141"
3,2,2,12,"Y","1",1.364,"","pear","","2016_Nov_15_1141"
3,2,2,13,"A","9",1.195,"","strawberry","","2016_Nov_15_1141"
3,2,2,14,"X","1",1.195,"","apple","","2016_Nov_15_1141"
3,2,2,15,"X","1",1.632,"apple","","","2016_Nov_15_1141"
3,2,2,16,"C","1",0.695,"","orange","","2016_Nov_15_1141"
3,2,2,17,"Y","1",0.757,"pear","","","2016_Nov_15_1141"
3,2,2,18,"C","1",0.677,"orange","","","2016_Nov_15_1141"
3,2,2,19,"B","9",1.288,"","banana","","2016_Nov_15_1141"
3,2,2,20,"B","9",0.912,"banana","","","2016_Nov_15_1141"
3,2,3,21,"C","1",1.114,"","orange","","2016_Nov_15_1141"
3,2,3,22,"X","1",1.146,"apple","","","2016_Nov_15_1141"
3,2,3,23,"B","9",1.193,"banana","","","2016_Nov_15_1141"
3,2,3,24,"Y","1",1.943,"pear","","","2016_Nov_15_1141"
3,2,3,25,"B","9",1.57,"","banana","","2016_Nov_15_1141"
3,2,3,26,"C","1",1.615,"orange","","","2016_Nov_15_1141"
3,2,3,27,"A","9",2.146,"","strawberry","","2016_Nov_15_1141"
3,2,3,28,"A","9",0.849,"strawberry","","","2016_Nov_15_1141"
3,2,3,29,"X","0",1.177,"","apple","","2016_Nov_15_1141"
3,2,3,30,"Y","1",1.333,"","pear","","2016_Nov_15_1141"
3,2,4,31,"X","1",0.661,"","apple","","2016_Nov_15_1141"
3,2,4,32,"A","9",1.256,"strawberry","","","2016_Nov_15_1141"
3,2,4,33,"Y","1",1.661,"","pear","","2016_Nov_15_1141"
3,2,4,34,"B","10",1.021,"","banana","","2016_Nov_15_1141"
3,2,4,35,"X","1",0.927,"apple","","","2016_Nov_15_1141"
3,2,4,36,"C","1",0.632,"orange","","","2016_Nov_15_1141"
3,2,4,37,"C","1",0.615,"","orange","","2016_Nov_15_1141"
3,2,4,38,"Y","1",0.49,"pear","","","2016_Nov_15_1141"
3,2,4,39,"A","9",0.773,"","strawberry","","2016_Nov_15_1141"
3,2,4,40,"B","10",1.273,"banana","","","2016_Nov_15_1141"
3,2,5,41,"X","1",1.192,"","apple","","2016_Nov_15_1141"
3,2,5,42,"C","1",0.632,"orange","","","2016_Nov_15_1141"
3,2,5,43,"B","1",0.49,"banana","","","2016_Nov_15_1141"
3,2,5,44,"C","1",0.802,"","orange","","2016_Nov_15_1141"
3,2,5,45,"A","10",1.148,"strawberry","","","2016_Nov_15_1141"
3,2,5,46,"B","10",0.739,"","banana","","2016_Nov_15_1141"
3,2,5,47,"A","10",0.677,"","strawberry","","2016_Nov_15_1141"
3,2,5,48,"X","2",1.286,"apple","","","2016_Nov_15_1141"
3,2,5,49,"Y","2",1.052,"pear","","","2016_Nov_15_1141"
3,2,5,50,"Y","2",0.819,"","pear","","2016_Nov_15_1141"
3,2,6,51,"Y","2",0.677,"","pear","","2016_Nov_15_1141"
3,2,6,52,"X","1",0.976,"","apple","","2016_Nov_15_1141"
3,2,6,53,"C","1",0.615,"orange","","","2016_Nov_15_1141"
3,2,6,54,"Y","1",0.74,"pear","","","2016_Nov_15_1141"
3,2,6,55,"B","9",1.038,"banana","","","2016_Nov_15_1141"
3,2,6,56,"A","9",0.849,"strawberry","","","2016_Nov_15_1141"
3,2,6,57,"X","0",0.974,"apple","","","2016_Nov_15_1141"
3,2,6,58,"B","10",1.692,"","banana","","2016_Nov_15_1141"
3,2,6,59,"A","10",1.711,"","strawberry","","2016_Nov_15_1141"
3,2,6,60,"C","1",1.21,"","orange","","2016_Nov_15_1141"
3,4,1,1,"X","10",2.786,"apple","","","2016_Nov_15_1141"
3,4,1,2,"Y","10",0.74,"pear","","","2016_Nov_15_1141"
3,4,1,3,"B","0",1.898,"banana","","","2016_Nov_15_1141"
3,4,1,4,"A","10",1.036,"","strawberry","","2016_Nov_15_1141"
3,4,1,5,"Y","10",0.726,"","pear","","2016_Nov_15_1141"
3,4,1,6,"C","0",1.693,"","orange","","2016_Nov_15_1141"
3,4,1,7,"C","0",1.13,"orange","","","2016_Nov_15_1141"
3,4,1,8,"B","10",1.226,"","banana","","2016_Nov_15_1141"
3,4,1,9,"A","10",1.227,"strawberry","","","2016_Nov_15_1141"
3,4,1,10,"X","10",1.24,"","apple","","2016_Nov_15_1141"
3,4,2,11,"X","10",0.585,"","apple","","2016_Nov_15_1141"
3,4,2,12,"B","10",0.849,"banana","","","2016_Nov_15_1141"
3,4,2,13,"A","10",0.552,"","strawberry","","2016_Nov_15_1141"
3,4,2,14,"Y","10",1.177,"","pear","","2016_Nov_15_1141"
3,4,2,15,"X","10",0.677,"apple","","","2016_Nov_15_1141"
3,4,2,16,"C","0",1.286,"orange","","","2016_Nov_15_1141"
3,4,2,17,"B","10",0.865,"","banana","","2016_Nov_15_1141"
3,4,2,18,"Y","10",0.57,"pear","","","2016_Nov_15_1141"
3,4,2,19,"A","10",0.694,"strawberry","","","2016_Nov_15_1141"
3,4,2,20,"C","1",1.304,"","orange","","2016_Nov_15_1141"
3,4,3,21,"Y","9",1.677,"pear","","","2016_Nov_15_1141"
3,4,3,22,"X","9",1.49,"apple","","","2016_Nov_15_1141"
3,4,3,23,"Y","9",0.552,"","pear","","2016_Nov_15_1141"
3,4,3,24,"B","9",0.945,"","banana","","2016_Nov_15_1141"
3,4,3,25,"C","1",1.255,"","orange","","2016_Nov_15_1141"
3,4,3,26,"C","1",0.552,"orange","","","2016_Nov_15_1141"
3,4,3,27,"A","9",1.413,"","strawberry","","2016_Nov_15_1141"
3,4,3,28,"X","9",1.193,"","apple","","2016_Nov_15_1141"
3,4,3,29,"A","9",1.069,"strawberry","","","2016_Nov_15_1141"
3,4,3,30,"B","9",0.552,"banana","","","2016_Nov_15_1141"
3,4,4,31,"C","1",1.069,"","orange","","2016_Nov_15_1141"
3,4,4,32,"A","9",1.005,"strawberry","","","2016_Nov_15_1141"
3,4,4,33,"B","9",1.099,"","banana","","2016_Nov_15_1141"
3,4,4,34,"X","10",1.865,"apple","","","2016_Nov_15_1141"
3,4,4,35,"Y","10",0.552,"","pear","","2016_Nov_15_1141"
3,4,4,36,"B","10",1.13,"banana","","","2016_Nov_15_1141"
3,4,4,37,"C","1",1.536,"orange","","","2016_Nov_15_1141"
3,4,4,38,"A","9",1.333,"","strawberry","","2016_Nov_15_1141"
3,4,4,39,"X","9",1.088,"","apple","","2016_Nov_15_1141"
3,4,4,40,"Y","9",0.739,"pear","","","2016_Nov_15_1141"
3,4,5,41,"B","9",0.57,"banana","","","2016_Nov_15_1141"
3,4,5,42,"A","10",0.412,"strawberry","","","2016_Nov_15_1141"
3,4,5,43,"Y","10",0.416,"pear","","","2016_Nov_15_1141"
3,4,5,44,"C","0",0.99,"","orange","","2016_Nov_15_1141"
3,4,5,45,"X","10",1.239,"","apple","","2016_Nov_15_1141"
3,4,5,46,"C","0",1.068,"orange","","","2016_Nov_15_1141"
3,4,5,47,"B","9",1.054,"","banana","","2016_Nov_15_1141"
3,4,5,48,"X","0",1.412,"apple","","","2016_Nov_15_1141"
3,4,5,49,"Y","10",1.257,"","pear","","2016_Nov_15_1141"
3,4,5,50,"A","10",0.432,"","strawberry","","2016_Nov_15_1141"
3,4,6,51,"X","10",0.427,"","apple","","2016_Nov_15_1141"
3,4,6,52,"X","10",1.069,"apple","","","2016_Nov_15_1141"
3,4,6,53,"C","0",1.161,"","orange","","2016_Nov_15_1141"
3,4,6,54,"Y","8",1.351,"pear","","","2016_Nov_15_1141"
3,4,6,55,"A","9",1.052,"strawberry","","","2016_Nov_15_1141"
3,4,6,56,"A","9",0.739,"","strawberry","","2016_Nov_15_1141"
3,4,6,57,"Y","9",0.427,"","pear","","2016_Nov_15_1141"
3,4,6,58,"C","0",1.036,"orange","","","2016_Nov_15_1141"
3,4,6,59,"B","8",1.007,"banana","","","2016_Nov_15_1141"
3,4,6,60,"B","8",0.552,"","banana","","2016_Nov_15_1141"
4,2,1,1,"X","3",10.115,"","pear","","2016_Nov_15_1042"
4,2,1,2,"C","0",2.414,"strawberry","","","2016_Nov_15_1042"
4,2,1,3,"Y","0",0.944,"banana","","","2016_Nov_15_1042"
4,2,1,4,"B","10",1.724,"","orange","","2016_Nov_15_1042"
4,2,1,5,"Y","0",1.568,"","banana","","2016_Nov_15_1042"
4,2,1,6,"C","0",1.489,"","strawberry","","2016_Nov_15_1042"
4,2,1,7,"X","4",6.086,"pear","","","2016_Nov_15_1042"
4,2,1,8,"A","10",1.927,"apple","","","2016_Nov_15_1042"
4,2,1,9,"B","10",2.224,"orange","","","2016_Nov_15_1042"
4,2,1,10,"A","10",1.49,"","apple","","2016_Nov_15_1042"
4,2,2,11,"A","10",1.552,"","apple","","2016_Nov_15_1042"
4,2,2,12,"Y","0",1.739,"","banana","","2016_Nov_15_1042"
4,2,2,13,"X","5",1.864,"pear","","","2016_Nov_15_1042"
4,2,2,14,"C","0",2.021,"","strawberry","","2016_Nov_15_1042"
4,2,2,15,"C","0",0.802,"strawberry","","","2016_Nov_15_1042"
4,2,2,16,"B","10",1.523,"","orange","","2016_Nov_15_1042"
4,2,2,17,"B","10",0.632,"orange","","","2016_Nov_15_1042"
4,2,2,18,"X","5",1.239,"","pear","","2016_Nov_15_1042"
4,2,2,19,"Y","0",2.742,"banana","","","2016_Nov_15_1042"
4,2,2,20,"A","10",1.723,"apple","","","2016_Nov_15_1042"
4,2,3,21,"Y","0",1.616,"","banana","","2016_Nov_15_1042"
4,2,3,22,"C","0",0.786,"","strawberry","","2016_Nov_15_1042"
4,2,3,23,"B","10",1.255,"","orange","","2016_Nov_15_1042"
4,2,3,24,"X","5",1.802,"pear","","","2016_Nov_15_1042"
4,2,3,25,"A","10",1.132,"","apple","","2016_Nov_15_1042"
4,2,3,26,"B","10",1.755,"orange","","","2016_Nov_15_1042"
4,2,3,27,"A","10",0.99,"apple","","","2016_Nov_15_1042"
4,2,3,28,"X","5",1.208,"","pear","","2016_Nov_15_1042"
4,2,3,29,"C","0",1.46,"strawberry","","","2016_Nov_15_1042"
4,2,3,30,"Y","0",1.802,"banana","","","2016_Nov_15_1042"
4,2,4,31,"X","5",3.007,"","pear","","2016_Nov_15_1042"
4,2,4,32,"B","10",1.021,"","orange","","2016_Nov_15_1042"
4,2,4,33,"C","0",1.271,"","strawberry","","2016_Nov_15_1042"
4,2,4,34,"B","10",1.054,"orange","","","2016_Nov_15_1042"
4,2,4,35,"C","0",3.601,"strawberry","","","2016_Nov_15_1042"
4,2,4,36,"A","10",1.349,"","apple","","2016_Nov_15_1042"
4,2,4,37,"Y","0",1.085,"","banana","","2016_Nov_15_1042"
4,2,4,38,"A","10",1.24,"apple","","","2016_Nov_15_1042"
4,2,4,39,"X","5",1.458,"pear","","","2016_Nov_15_1042"
4,2,4,40,"Y","0",3.068,"banana","","","2016_Nov_15_1042"
4,2,5,41,"A","10",1.239,"","apple","","2016_Nov_15_1042"
4,2,5,42,"B","10",0.585,"","orange","","2016_Nov_15_1042"
4,2,5,43,"Y","0",0.927,"banana","","","2016_Nov_15_1042"
4,2,5,44,"Y","0",0.552,"","banana","","2016_Nov_15_1042"
4,2,5,45,"C","0",0.927,"strawberry","","","2016_Nov_15_1042"
4,2,5,46,"A","10",1.507,"apple","","","2016_Nov_15_1042"
4,2,5,47,"B","10",1.148,"orange","","","2016_Nov_15_1042"
4,2,5,48,"X","5",3.427,"pear","","","2016_Nov_15_1042"
4,2,5,49,"X","5",1.101,"","pear","","2016_Nov_15_1042"
4,2,5,50,"C","0",1.396,"","strawberry","","2016_Nov_15_1042"
4,2,6,51,"Y","0",0.74,"","banana","","2016_Nov_15_1042"
4,2,6,52,"X","5",1.271,"pear","","","2016_Nov_15_1042"
4,2,6,53,"B","10",1.318,"","orange","","2016_Nov_15_1042"
4,2,6,54,"X","0",1.677,"","pear","","2016_Nov_15_1042"
4,2,6,55,"C","0",1.708,"strawberry","","","2016_Nov_15_1042"
4,2,6,56,"A","10",1.239,"","apple","","2016_Nov_15_1042"
4,2,6,57,"C","0",1.864,"","strawberry","","2016_Nov_15_1042"
4,2,6,58,"B","10",1.38,"orange","","","2016_Nov_15_1042"
4,2,6,59,"Y","0",1.427,"banana","","","2016_Nov_15_1042"
4,2,6,60,"A","10",1.302,"apple","","","2016_Nov_15_1042"
4,4,1,1,"Y","0",2.38,"","banana","","2016_Nov_15_1042"
4,4,1,2,"A","10",1.068,"apple","","","2016_Nov_15_1042"
4,4,1,3,"C","0",1.21,"","strawberry","","2016_Nov_15_1042"
4,4,1,4,"Y","0",1.583,"banana","","","2016_Nov_15_1042"
4,4,1,5,"B","10",1.648,"","orange","","2016_Nov_15_1042"
4,4,1,6,"X","10",1.146,"","pear","","2016_Nov_15_1042"
4,4,1,7,"X","10",0.489,"pear","","","2016_Nov_15_1042"
4,4,1,8,"B","10",0.833,"orange","","","2016_Nov_15_1042"
4,4,1,9,"A","10",0.442,"","apple","","2016_Nov_15_1042"
4,4,1,10,"C","0",1.396,"strawberry","","","2016_Nov_15_1042"
4,4,2,11,"Y","0",0.427,"","banana","","2016_Nov_15_1042"
4,4,2,12,"B","10",1.443,"","orange","","2016_Nov_15_1042"
4,4,2,13,"Y","0",1.146,"banana","","","2016_Nov_15_1042"
4,4,2,14,"X","10",1.536,"","pear","","2016_Nov_15_1042"
4,4,2,15,"A","10",0.57,"apple","","","2016_Nov_15_1042"
4,4,2,16,"C","0",1.443,"","strawberry","","2016_Nov_15_1042"
4,4,2,17,"X","10",1.88,"pear","","","2016_Nov_15_1042"
4,4,2,18,"B","10",1.177,"orange","","","2016_Nov_15_1042"
4,4,2,19,"C","0",1.599,"strawberry","","","2016_Nov_15_1042"
4,4,2,20,"A","0",0.568,"","apple","","2016_Nov_15_1042"
4,4,3,21,"B","10",1.771,"orange","","","2016_Nov_15_1042"
4,4,3,22,"X","10",0.864,"pear","","","2016_Nov_15_1042"
4,4,3,23,"X","10",0.427,"","pear","","2016_Nov_15_1042"
4,4,3,24,"C","0",1.382,"strawberry","","","2016_Nov_15_1042"
4,4,3,25,"C","0",0.445,"","strawberry","","2016_Nov_15_1042"
4,4,3,26,"B","10",1.788,"","orange","","2016_Nov_15_1042"
4,4,3,27,"Y","0",1.818,"","banana","","2016_Nov_15_1042"
4,4,3,28,"Y","0",0.474,"banana","","","2016_Nov_15_1042"
4,4,3,29,"A","10",1.116,"apple","","","2016_Nov_15_1042"
4,4,3,30,"A","10",0.427,"","apple","","2016_Nov_15_1042"
4,4,4,31,"C","0",1.255,"strawberry","","","2016_Nov_15_1042"
4,4,4,32,"X","10",1.083,"pear","","","2016_Nov_15_1042"
4,4,4,33,"C","0",1.039,"","strawberry","","2016_Nov_15_1042"
4,4,4,34,"B","9",1.224,"orange","","","2016_Nov_15_1042"
4,4,4,35,"B","10",0.507,"","orange","","2016_Nov_15_1042"
4,4,4,36,"X","10",1.679,"","pear","","2016_Nov_15_1042"
4,4,4,37,"A","10",0.507,"","apple","","2016_Nov_15_1042"
4,4,4,38,"Y","0",1.568,"","banana","","2016_Nov_15_1042"
4,4,4,39,"Y","0",0.614,"banana","","","2016_Nov_15_1042"
4,4,4,40,"A","10",1.224,"apple","","","2016_Nov_15_1042"
4,4,5,41,"B","10",0.677,"orange","","","2016_Nov_15_1042"
4,4,5,42,"X","10",3.349,"","pear","","2016_Nov_15_1042"
4,4,5,43,"B","0",1.536,"","orange","","2016_Nov_15_1042"
4,4,5,44,"A","10",1.427,"apple","","","2016_Nov_15_1042"
4,4,5,45,"Y","0",1.333,"","banana","","2016_Nov_15_1042"
4,4,5,46,"X","10",1.521,"pear","","","2016_Nov_15_1042"
4,4,5,47,"C","0",1.335,"strawberry","","","2016_Nov_15_1042"
4,4,5,48,"A","10",1.365,"","apple","","2016_Nov_15_1042"
4,4,5,49,"C","0",1.24,"","strawberry","","2016_Nov_15_1042"
4,4,5,50,"Y","0",1.255,"banana","","","2016_Nov_15_1042"
4,4,6,51,"X","10",1.255,"pear","","","2016_Nov_15_1042"
4,4,6,52,"C","0",1.913,"strawberry","","","2016_Nov_15_1042"
4,4,6,53,"A","10",1.037,"","apple","","2016_Nov_15_1042"
4,4,6,54,"C","10",0.49,"","strawberry","","2016_Nov_15_1042"
4,4,6,55,"B","10",0.677,"","orange","","2016_Nov_15_1042"
4,4,6,56,"Y","0",1.179,"","banana","","2016_Nov_15_1042"
4,4,6,57,"B","10",1.286,"orange","","","2016_Nov_15_1042"
4,4,6,58,"A","10",0.569,"apple","","","2016_Nov_15_1042"
4,4,6,59,"X","10",0.632,"","pear","","2016_Nov_15_1042"
4,4,6,60,"Y","0",1.521,"banana","","","2016_Nov_15_1042"
5,2,1,1,"A","10",5.943,"","strawberry","","2016_Nov_15_1226"
5,2,1,2,"Y","10",1.677,"","banana","","2016_Nov_15_1226"
5,2,1,3,"X","5",7.04,"","orange","","2016_Nov_15_1226"
5,2,1,4,"X","5",2.708,"orange","","","2016_Nov_15_1226"
5,2,1,5,"B","5",2.102,"","apple","","2016_Nov_15_1226"
5,2,1,6,"C","0",2.677,"","pear","","2016_Nov_15_1226"
5,2,1,7,"B","5",3.786,"apple","","","2016_Nov_15_1226"
5,2,1,8,"C","0",3.927,"pear","","","2016_Nov_15_1226"
5,2,1,9,"A","7",2.693,"strawberry","","","2016_Nov_15_1226"
5,2,1,10,"Y","5",2.224,"banana","","","2016_Nov_15_1226"
5,2,2,11,"B","5",1.896,"","apple","","2016_Nov_15_1226"
5,2,2,12,"C","0",2.286,"","pear","","2016_Nov_15_1226"
5,2,2,13,"Y","5",1.927,"","banana","","2016_Nov_15_1226"
5,2,2,14,"Y","5",2.365,"banana","","","2016_Nov_15_1226"
5,2,2,15,"X","5",1.708,"","orange","","2016_Nov_15_1226"
5,2,2,16,"B","5",1.57,"apple","","","2016_Nov_15_1226"
5,2,2,17,"C","0",2.083,"pear","","","2016_Nov_15_1226"
5,2,2,18,"A","10",2.367,"strawberry","","","2016_Nov_15_1226"
5,2,2,19,"X","5",2.186,"orange","","","2016_Nov_15_1226"
5,2,2,20,"A","5",1.445,"","strawberry","","2016_Nov_15_1226"
5,2,3,21,"X","5",2.367,"orange","","","2016_Nov_15_1226"
5,2,3,22,"C","0",1.741,"","pear","","2016_Nov_15_1226"
5,2,3,23,"Y","10",2.226,"banana","","","2016_Nov_15_1226"
5,2,3,24,"B","5",1.63,"","apple","","2016_Nov_15_1226"
5,2,3,25,"X","5",1.819,"","orange","","2016_Nov_15_1226"
5,2,3,26,"A","10",1.476,"strawberry","","","2016_Nov_15_1226"
5,2,3,27,"A","10",1.177,"","strawberry","","2016_Nov_15_1226"
5,2,3,28,"B","5",3.165,"apple","","","2016_Nov_15_1226"
5,2,3,29,"Y","10",4.915,"","banana","","2016_Nov_15_1226"
5,2,3,30,"C","0",2.568,"pear","","","2016_Nov_15_1226"
5,2,4,31,"B","10",4.274,"","apple","","2016_Nov_15_1226"
5,2,4,32,"A","10",3.177,"","strawberry","","2016_Nov_15_1226"
5,2,4,33,"X","5",2.505,"orange","","","2016_Nov_15_1226"
5,2,4,34,"C","0",1.54,"","pear","","2016_Nov_15_1226"
5,2,4,35,"C","0",1.712,"pear","","","2016_Nov_15_1226"
5,2,4,36,"B","5",3.661,"apple","","","2016_Nov_15_1226"
5,2,4,37,"Y","5",1.507,"","banana","","2016_Nov_15_1226"
5,2,4,38,"X","5",2.975,"","orange","","2016_Nov_15_1226"
5,2,4,39,"A","10",1.63,"strawberry","","","2016_Nov_15_1226"
5,2,4,40,"Y","5",3.354,"banana","","","2016_Nov_15_1226"
5,2,5,41,"B","5",1.802,"apple","","","2016_Nov_15_1226"
5,2,5,42,"B","5",1.366,"","apple","","2016_Nov_15_1226"
5,2,5,43,"X","5",1.177,"orange","","","2016_Nov_15_1226"
5,2,5,44,"A","10",3.771,"","strawberry","","2016_Nov_15_1226"
5,2,5,45,"Y","5",2.271,"","banana","","2016_Nov_15_1226"
5,2,5,46,"A","10",1.695,"strawberry","","","2016_Nov_15_1226"
5,2,5,47,"C","0",2.211,"pear","","","2016_Nov_15_1226"
5,2,5,48,"Y","5",3.865,"banana","","","2016_Nov_15_1226"
5,2,5,49,"X","5",8.557,"","orange","","2016_Nov_15_1226"
5,2,5,50,"C","0",3.24,"","pear","","2016_Nov_15_1226"
5,2,6,51,"Y","5",2.101,"","banana","","2016_Nov_15_1226"
5,2,6,52,"C","0",2.349,"","pear","","2016_Nov_15_1226"
5,2,6,53,"A","7",2.349,"","strawberry","","2016_Nov_15_1226"
5,2,6,54,"C","0",2.583,"pear","","","2016_Nov_15_1226"
5,2,6,55,"Y","10",4.196,"banana","","","2016_Nov_15_1226"
5,2,6,56,"A","10",1.614,"strawberry","","","2016_Nov_15_1226"
5,2,6,57,"B","5",2.536,"","apple","","2016_Nov_15_1226"
5,2,6,58,"B","5",1.427,"apple","","","2016_Nov_15_1226"
5,2,6,59,"X","5",2.554,"","orange","","2016_Nov_15_1226"
5,2,6,60,"X","5",2.739,"orange","","","2016_Nov_15_1226"
5,4,1,1,"B","5",5.724,"","apple","","2016_Nov_15_1226"
5,4,1,2,"X","8",3.396,"orange","","","2016_Nov_15_1226"
5,4,1,3,"A","10",2.772,"","strawberry","","2016_Nov_15_1226"
5,4,1,4,"A","10",2.695,"strawberry","","","2016_Nov_15_1226"
5,4,1,5,"C","0",4.114,"","pear","","2016_Nov_15_1226"
5,4,1,6,"Y","10",4.521,"banana","","","2016_Nov_15_1226"
5,4,1,7,"C","0",2.271,"pear","","","2016_Nov_15_1226"
5,4,1,8,"B","5",2.911,"apple","","","2016_Nov_15_1226"
5,4,1,9,"Y","10",2.615,"","banana","","2016_Nov_15_1226"
5,4,1,10,"X","8",5.006,"","orange","","2016_Nov_15_1226"
5,4,2,11,"A","10",3.115,"strawberry","","","2016_Nov_15_1226"
5,4,2,12,"X","10",3.802,"","orange","","2016_Nov_15_1226"
5,4,2,13,"A","10",1.786,"","strawberry","","2016_Nov_15_1226"
5,4,2,14,"C","0",2.833,"pear","","","2016_Nov_15_1226"
5,4,2,15,"X","0",3.007,"orange","","","2016_Nov_15_1226"
5,4,2,16,"B","5",2.474,"","apple","","2016_Nov_15_1226"
5,4,2,17,"Y","5",6.615,"banana","","","2016_Nov_15_1226"
5,4,2,18,"Y","5",1.552,"","banana","","2016_Nov_15_1226"
5,4,2,19,"B","7",2.133,"apple","","","2016_Nov_15_1226"
5,4,2,20,"C","0",2.005,"","pear","","2016_Nov_15_1226"
5,4,3,21,"X","7",4.162,"","orange","","2016_Nov_15_1226"
5,4,3,22,"X","7",1.74,"orange","","","2016_Nov_15_1226"
5,4,3,23,"B","5",2.724,"","apple","","2016_Nov_15_1226"
5,4,3,24,"Y","7",2.617,"","banana","","2016_Nov_15_1226"
5,4,3,25,"A","10",1.772,"strawberry","","","2016_Nov_15_1226"
5,4,3,26,"Y","10",1.177,"banana","","","2016_Nov_15_1226"
5,4,3,27,"A","8",3.182,"","strawberry","","2016_Nov_15_1226"
5,4,3,28,"C","0",2.833,"","pear","","2016_Nov_15_1226"
5,4,3,29,"B","5",2.115,"apple","","","2016_Nov_15_1226"
5,4,3,30,"C","0",3.01,"pear","","","2016_Nov_15_1226"
5,4,4,31,"A","5",2.458,"","strawberry","","2016_Nov_15_1226"
5,4,4,32,"A","5",2.115,"strawberry","","","2016_Nov_15_1226"
5,4,4,33,"C","0",2.505,"","pear","","2016_Nov_15_1226"
5,4,4,34,"X","6",3.945,"","orange","","2016_Nov_15_1226"
5,4,4,35,"Y","6",1.427,"banana","","","2016_Nov_15_1226"
5,4,4,36,"Y","6",1.365,"","banana","","2016_Nov_15_1226"
5,4,4,37,"X","6",1.99,"orange","","","2016_Nov_15_1226"
5,4,4,38,"B","8",1.757,"apple","","","2016_Nov_15_1226"
5,4,4,39,"B","8",1.615,"","apple","","2016_Nov_15_1226"
5,4,4,40,"C","0",1.568,"pear","","","2016_Nov_15_1226"
5,4,5,41,"C","0",1.365,"pear","","","2016_Nov_15_1226"
5,4,5,42,"Y","9",2.849,"","banana","","2016_Nov_15_1226"
5,4,5,43,"B","8",2.161,"apple","","","2016_Nov_15_1226"
5,4,5,44,"X","5",1.833,"","orange","","2016_Nov_15_1226"
5,4,5,45,"A","5",1.992,"strawberry","","","2016_Nov_15_1226"
5,4,5,46,"B","5",2.352,"","apple","","2016_Nov_15_1226"
5,4,5,47,"X","8",2.005,"orange","","","2016_Nov_15_1226"
5,4,5,48,"Y","8",2.052,"banana","","","2016_Nov_15_1226"
5,4,5,49,"A","10",1.833,"","strawberry","","2016_Nov_15_1226"
5,4,5,50,"C","0",2.035,"","pear","","2016_Nov_15_1226"
5,4,6,51,"A","10",2.507,"","strawberry","","2016_Nov_15_1226"
5,4,6,52,"C","0",1.929,"pear","","","2016_Nov_15_1226"
5,4,6,53,"A","10",2.351,"strawberry","","","2016_Nov_15_1226"
5,4,6,54,"B","10",2.007,"apple","","","2016_Nov_15_1226"
5,4,6,55,"X","5",2.177,"orange","","","2016_Nov_15_1226"
5,4,6,56,"X","5",2.677,"","orange","","2016_Nov_15_1226"
5,4,6,57,"Y","5",3.115,"","banana","","2016_Nov_15_1226"
5,4,6,58,"C","0",2.396,"","pear","","2016_Nov_15_1226"
5,4,6,59,"B","5",2.929,"","apple","","2016_Nov_15_1226"
5,4,6,60,"Y","8",2.865,"banana","","","2016_Nov_15_1226"
6,2,1,1,"C","0",6.697,"banana","","","2016_Nov_15_1139"
6,2,1,2,"X","5",11.927,"apple","","","2016_Nov_15_1139"
6,2,1,3,"C","0",2.408,"","banana","","2016_Nov_15_1139"
6,2,1,4,"Y","0",3.343,"strawberry","","","2016_Nov_15_1139"
6,2,1,5,"A","10",6.262,"orange","","","2016_Nov_15_1139"
6,2,1,6,"X","5",6.5,"","apple","","2016_Nov_15_1139"
6,2,1,7,"B","10",2.505,"pear","","","2016_Nov_15_1139"
6,2,1,8,"A","10",1.692,"","orange","","2016_Nov_15_1139"
6,2,1,9,"Y","0",2.038,"","strawberry","","2016_Nov_15_1139"
6,2,1,10,"B","10",2.083,"","pear","","2016_Nov_15_1139"
6,2,2,11,"A","10",1.386,"orange","","","2016_Nov_15_1139"
6,2,2,12,"B","10",1.35,"pear","","","2016_Nov_15_1139"
6,2,2,13,"B","10",1.66,"","pear","","2016_Nov_15_1139"
6,2,2,14,"C","0",2.086,"banana","","","2016_Nov_15_1139"
6,2,2,15,"C","0",1.409,"","banana","","2016_Nov_15_1139"
6,2,2,16,"A","10",2.162,"","orange","","2016_Nov_15_1139"
6,2,2,17,"X","5",2.849,"","apple","","2016_Nov_15_1139"
6,2,2,18,"Y","0",2.333,"strawberry","","","2016_Nov_15_1139"
6,2,2,19,"Y","0",4.57,"","strawberry","","2016_Nov_15_1139"
6,2,2,20,"X","5",1.93,"apple","","","2016_Nov_15_1139"
6,2,3,21,"Y","0",1.523,"","strawberry","","2016_Nov_15_1139"
6,2,3,22,"B","10",1.868,"pear","","","2016_Nov_15_1139"
6,2,3,23,"Y","0",1.675,"strawberry","","","2016_Nov_15_1139"
6,2,3,24,"C","0",1.88,"","banana","","2016_Nov_15_1139"
6,2,3,25,"B","10",2.052,"","pear","","2016_Nov_15_1139"
6,2,3,26,"A","10",2.167,"","orange","","2016_Nov_15_1139"
6,2,3,27,"X","5",1.553,"","apple","","2016_Nov_15_1139"
6,2,3,28,"A","10",1.983,"orange","","","2016_Nov_15_1139"
6,2,3,29,"X","5",1.446,"apple","","","2016_Nov_15_1139"
6,2,3,30,"C","0",1.711,"banana","","","2016_Nov_15_1139"
6,2,4,31,"C","0",1.505,"banana","","","2016_Nov_15_1139"
6,2,4,32,"A","10",1.538,"orange","","","2016_Nov_15_1139"
6,2,4,33,"C","0",1.818,"","banana","","2016_Nov_15_1139"
6,2,4,34,"Y","0",1.255,"strawberry","","","2016_Nov_15_1139"
6,2,4,35,"X","5",1.268,"apple","","","2016_Nov_15_1139"
6,2,4,36,"X","5",1.539,"","apple","","2016_Nov_15_1139"
6,2,4,37,"B","10",1.46,"pear","","","2016_Nov_15_1139"
6,2,4,38,"Y","0",1.331,"","strawberry","","2016_Nov_15_1139"
6,2,4,39,"B","10",1.621,"","pear","","2016_Nov_15_1139"
6,2,4,40,"A","10",1.552,"","orange","","2016_Nov_15_1139"
6,2,5,41,"A","10",1.146,"","orange","","2016_Nov_15_1139"
6,2,5,42,"Y","0",1.536,"strawberry","","","2016_Nov_15_1139"
6,2,5,43,"Y","0",2.086,"","strawberry","","2016_Nov_15_1139"
6,2,5,44,"C","0",1.224,"banana","","","2016_Nov_15_1139"
6,2,5,45,"X","5",1.474,"apple","","","2016_Nov_15_1139"
6,2,5,46,"X","5",0.88,"","apple","","2016_Nov_15_1139"
6,2,5,47,"A","10",1.473,"orange","","","2016_Nov_15_1139"
6,2,5,48,"B","10",1.291,"pear","","","2016_Nov_15_1139"
6,2,5,49,"B","10",1.193,"","pear","","2016_Nov_15_1139"
6,2,5,50,"C","0",1.35,"","banana","","2016_Nov_15_1139"
6,2,6,51,"B","10",1.357,"pear","","","2016_Nov_15_1139"
6,2,6,52,"X","5",1.286,"","apple","","2016_Nov_15_1139"
6,2,6,53,"Y","0",1.347,"","strawberry","","2016_Nov_15_1139"
6,2,6,54,"C","0",1.208,"","banana","","2016_Nov_15_1139"
6,2,6,55,"A","10",1.471,"","orange","","2016_Nov_15_1139"
6,2,6,56,"X","5",1.132,"apple","","","2016_Nov_15_1139"
6,2,6,57,"C","0",1.199,"banana","","","2016_Nov_15_1139"
6,2,6,58,"A","10",1.208,"orange","","","2016_Nov_15_1139"
6,2,6,59,"Y","0",1.528,"strawberry","","","2016_Nov_15_1139"
6,2,6,60,"B","10",1.318,"","pear","","2016_Nov_15_1139"
6,4,1,1,"C","0",1.772,"","banana","","2016_Nov_15_1139"
6,4,1,2,"A","10",1.226,"","orange","","2016_Nov_15_1139"
6,4,1,3,"X","10",1.163,"","apple","","2016_Nov_15_1139"
6,4,1,4,"Y","0",2.333,"","strawberry","","2016_Nov_15_1139"
6,4,1,5,"A","10",1.226,"orange","","","2016_Nov_15_1139"
6,4,1,6,"C","0",2.274,"banana","","","2016_Nov_15_1139"
6,4,1,7,"B","10",1.475,"pear","","","2016_Nov_15_1139"
6,4,1,8,"B","10",1.117,"","pear","","2016_Nov_15_1139"
6,4,1,9,"X","10",1.011,"apple","","","2016_Nov_15_1139"
6,4,1,10,"Y","0",2.126,"strawberry","","","2016_Nov_15_1139"
6,4,2,11,"X","10",1.333,"apple","","","2016_Nov_15_1139"
6,4,2,12,"A","10",0.867,"orange","","","2016_Nov_15_1139"
6,4,2,13,"B","10",1.082,"","pear","","2016_Nov_15_1139"
6,4,2,14,"C","0",1.466,"banana","","","2016_Nov_15_1139"
6,4,2,15,"X","10",1.614,"","apple","","2016_Nov_15_1139"
6,4,2,16,"Y","0",1.349,"","strawberry","","2016_Nov_15_1139"
6,4,2,17,"Y","0",1.302,"strawberry","","","2016_Nov_15_1139"
6,4,2,18,"C","0",0.828,"","banana","","2016_Nov_15_1139"
6,4,2,19,"A","10",1.148,"","orange","","2016_Nov_15_1139"
6,4,2,20,"B","10",1.55,"pear","","","2016_Nov_15_1139"
6,4,3,21,"C","0",1.224,"","banana","","2016_Nov_15_1139"
6,4,3,22,"A","10",1.333,"","orange","","2016_Nov_15_1139"
6,4,3,23,"X","10",2.311,"apple","","","2016_Nov_15_1139"
6,4,3,24,"Y","0",1.334,"","strawberry","","2016_Nov_15_1139"
6,4,3,25,"X","10",1.303,"","apple","","2016_Nov_15_1139"
6,4,3,26,"B","10",0.817,"pear","","","2016_Nov_15_1139"
6,4,3,27,"Y","0",1.675,"strawberry","","","2016_Nov_15_1139"
6,4,3,28,"C","0",1.255,"banana","","","2016_Nov_15_1139"
6,4,3,29,"B","10",1.831,"","pear","","2016_Nov_15_1139"
6,4,3,30,"A","10",0.823,"orange","","","2016_Nov_15_1139"
6,4,4,31,"Y","0",1.333,"","strawberry","","2016_Nov_15_1139"
6,4,4,32,"B","10",1.007,"","pear","","2016_Nov_15_1139"
6,4,4,33,"X","10",0.849,"apple","","","2016_Nov_15_1139"
6,4,4,34,"C","0",1.158,"","banana","","2016_Nov_15_1139"
6,4,4,35,"A","10",1.153,"orange","","","2016_Nov_15_1139"
6,4,4,36,"A","10",0.755,"","orange","","2016_Nov_15_1139"
6,4,4,37,"C","0",1.191,"banana","","","2016_Nov_15_1139"
6,4,4,38,"B","10",1.371,"pear","","","2016_Nov_15_1139"
6,4,4,39,"Y","0",1.367,"strawberry","","","2016_Nov_15_1139"
6,4,4,40,"X","10",1.238,"","apple","","2016_Nov_15_1139"
6,4,5,41,"X","10",1.253,"apple","","","2016_Nov_15_1139"
6,4,5,42,"C","0",1.147,"","banana","","2016_Nov_15_1139"
6,4,5,43,"Y","0",1.412,"strawberry","","","2016_Nov_15_1139"
6,4,5,44,"B","10",1.271,"","pear","","2016_Nov_15_1139"
6,4,5,45,"A","10",1.021,"","orange","","2016_Nov_15_1139"
6,4,5,46,"B","10",1.363,"pear","","","2016_Nov_15_1139"
6,4,5,47,"Y","0",1.741,"","strawberry","","2016_Nov_15_1139"
6,4,5,48,"A","10",1.192,"orange","","","2016_Nov_15_1139"
6,4,5,49,"C","0",1.211,"banana","","","2016_Nov_15_1139"
6,4,5,50,"X","10",1.536,"","apple","","2016_Nov_15_1139"
6,4,6,51,"C","0",1.411,"banana","","","2016_Nov_15_1139"
6,4,6,52,"Y","0",1.977,"strawberry","","","2016_Nov_15_1139"
6,4,6,53,"X","10",1.663,"","apple","","2016_Nov_15_1139"
6,4,6,54,"B","10",1.771,"pear","","","2016_Nov_15_1139"
6,4,6,55,"C","0",1.2,"","banana","","2016_Nov_15_1139"
6,4,6,56,"Y","0",0.96,"","strawberry","","2016_Nov_15_1139"
6,4,6,57,"X","10",1.268,"apple","","","2016_Nov_15_1139"
6,4,6,58,"A","10",0.815,"orange","","","2016_Nov_15_1139"
6,4,6,59,"A","10",1.001,"","orange","","2016_Nov_15_1139"
6,4,6,60,"B","10",0.878,"","pear","","2016_Nov_15_1139"
7,2,1,1,"C","0",8.334,"","pear","","2016_Nov_16_1050"
7,2,1,2,"A","10",2.023,"","banana","","2016_Nov_16_1050"
7,2,1,3,"X","9",4.068,"","apple","","2016_Nov_16_1050"
7,2,1,4,"Y","6",4.943,"orange","","","2016_Nov_16_1050"
7,2,1,5,"C","2",6.352,"pear","","","2016_Nov_16_1050"
7,2,1,6,"X","7",8.177,"apple","","","2016_Nov_16_1050"
7,2,1,7,"B","4",3.74,"","strawberry","","2016_Nov_16_1050"
7,2,1,8,"B","4",2.615,"strawberry","","","2016_Nov_16_1050"
7,2,1,9,"A","10",1.882,"banana","","","2016_Nov_16_1050"
7,2,1,10,"Y","5",5.786,"","orange","","2016_Nov_16_1050"
7,2,2,11,"Y","5",2.724,"orange","","","2016_Nov_16_1050"
7,2,2,12,"X","7",6.052,"apple","","","2016_Nov_16_1050"
7,2,2,13,"A","10",1.333,"","banana","","2016_Nov_16_1050"
7,2,2,14,"Y","4",4.708,"","orange","","2016_Nov_16_1050"
7,2,2,15,"B","7",7.224,"strawberry","","","2016_Nov_16_1050"
7,2,2,16,"X","6",3.789,"","apple","","2016_Nov_16_1050"
7,2,2,17,"B","7",1.177,"","strawberry","","2016_Nov_16_1050"
7,2,2,18,"C","0",4.349,"pear","","","2016_Nov_16_1050"
7,2,2,19,"A","10",1.192,"banana","","","2016_Nov_16_1050"
7,2,2,20,"C","0",1.74,"","pear","","2016_Nov_16_1050"
7,2,3,21,"C","0",1.333,"","pear","","2016_Nov_16_1050"
7,2,3,22,"A","10",1.57,"","banana","","2016_Nov_16_1050"
7,2,3,23,"Y","5",4.726,"","orange","","2016_Nov_16_1050"
7,2,3,24,"B","7",2.023,"","strawberry","","2016_Nov_16_1050"
7,2,3,25,"Y","5",1.271,"orange","","","2016_Nov_16_1050"
7,2,3,26,"X","7",4.443,"apple","","","2016_Nov_16_1050"
7,2,3,27,"B","6",4.586,"strawberry","","","2016_Nov_16_1050"
7,2,3,28,"X","7",1.224,"","apple","","2016_Nov_16_1050"
7,2,3,29,"C","0",1.849,"pear","","","2016_Nov_16_1050"
7,2,3,30,"A","10",0.958,"banana","","","2016_Nov_16_1050"
7,2,4,31,"C","0",4.255,"","pear","","2016_Nov_16_1050"
7,2,4,32,"A","10",1.036,"banana","","","2016_Nov_16_1050"
7,2,4,33,"B","6",2.552,"strawberry","","","2016_Nov_16_1050"
7,2,4,34,"A","10",1.054,"","banana","","2016_Nov_16_1050"
7,2,4,35,"B","6",0.974,"","strawberry","","2016_Nov_16_1050"
7,2,4,36,"C","0",2.349,"pear","","","2016_Nov_16_1050"
7,2,4,37,"X","6",2.116,"","apple","","2016_Nov_16_1050"
7,2,4,38,"Y","5",2.804,"orange","","","2016_Nov_16_1050"
7,2,4,39,"X","6",6.289,"apple","","","2016_Nov_16_1050"
7,2,4,40,"Y","5",1.992,"","orange","","2016_Nov_16_1050"
7,2,5,41,"Y","5",0.849,"","orange","","2016_Nov_16_1050"
7,2,5,42,"X","6",3.24,"","apple","","2016_Nov_16_1050"
7,2,5,43,"Y","5",3.036,"orange","","","2016_Nov_16_1050"
7,2,5,44,"C","0",2.21,"pear","","","2016_Nov_16_1050"
7,2,5,45,"A","10",2.115,"","banana","","2016_Nov_16_1050"
7,2,5,46,"X","7",1.724,"apple","","","2016_Nov_16_1050"
7,2,5,47,"C","0",2.724,"","pear","","2016_Nov_16_1050"
7,2,5,48,"A","10",4.396,"banana","","","2016_Nov_16_1050"
7,2,5,49,"B","7",1.786,"","strawberry","","2016_Nov_16_1050"
7,2,5,50,"B","7",0.74,"strawberry","","","2016_Nov_16_1050"
7,2,6,51,"X","7",3.849,"apple","","","2016_Nov_16_1050"
7,2,6,52,"A","10",1.505,"banana","","","2016_Nov_16_1050"
7,2,6,53,"B","7",0.976,"","strawberry","","2016_Nov_16_1050"
7,2,6,54,"Y","5",1.114,"","orange","","2016_Nov_16_1050"
7,2,6,55,"X","7",2.021,"","apple","","2016_Nov_16_1050"
7,2,6,56,"C","0",3.396,"","pear","","2016_Nov_16_1050"
7,2,6,57,"A","10",2.208,"","banana","","2016_Nov_16_1050"
7,2,6,58,"B","7",1.257,"strawberry","","","2016_Nov_16_1050"
7,2,6,59,"Y","5",1.833,"orange","","","2016_Nov_16_1050"
7,2,6,60,"C","0",1.46,"pear","","","2016_Nov_16_1050"
7,4,1,1,"X","8",10.727,"apple","","","2016_Nov_16_1050"
7,4,1,2,"C","0",4.146,"","pear","","2016_Nov_16_1050"
7,4,1,3,"A","10",1.739,"banana","","","2016_Nov_16_1050"
7,4,1,4,"X","8",1.033,"","apple","","2016_Nov_16_1050"
7,4,1,5,"B","6",3.318,"","strawberry","","2016_Nov_16_1050"
7,4,1,6,"A","10",1.773,"","banana","","2016_Nov_16_1050"
7,4,1,7,"Y","7",8.168,"orange","","","2016_Nov_16_1050"
7,4,1,8,"B","7",3.912,"strawberry","","","2016_Nov_16_1050"
7,4,1,9,"Y","7",1.49,"","orange","","2016_Nov_16_1050"
7,4,1,10,"C","0",1.583,"pear","","","2016_Nov_16_1050"
7,4,2,11,"X","8",4.275,"","apple","","2016_Nov_16_1050"
7,4,2,12,"B","7",2.536,"","strawberry","","2016_Nov_16_1050"
7,4,2,13,"Y","7",3.404,"","orange","","2016_Nov_16_1050"
7,4,2,14,"A","10",1.036,"banana","","","2016_Nov_16_1050"
7,4,2,15,"Y","7",1.645,"orange","","","2016_Nov_16_1050"
7,4,2,16,"X","8",2.161,"apple","","","2016_Nov_16_1050"
7,4,2,17,"B","7",1.13,"strawberry","","","2016_Nov_16_1050"
7,4,2,18,"C","0",1.255,"","pear","","2016_Nov_16_1050"
7,4,2,19,"C","0",1.302,"pear","","","2016_Nov_16_1050"
7,4,2,20,"A","10",1.036,"","banana","","2016_Nov_16_1050"
7,4,3,21,"C","0",1.554,"pear","","","2016_Nov_16_1050"
7,4,3,22,"A","10",0.989,"","banana","","2016_Nov_16_1050"
7,4,3,23,"B","7",5.992,"","strawberry","","2016_Nov_16_1050"
7,4,3,24,"Y","7",1.648,"","orange","","2016_Nov_16_1050"
7,4,3,25,"X","8",2.477,"apple","","","2016_Nov_16_1050"
7,4,3,26,"A","10",0.976,"banana","","","2016_Nov_16_1050"
7,4,3,27,"X","8",1.536,"","apple","","2016_Nov_16_1050"
7,4,3,28,"Y","7",1.443,"orange","","","2016_Nov_16_1050"
7,4,3,29,"B","7",1.879,"strawberry","","","2016_Nov_16_1050"
7,4,3,30,"C","0",1.196,"","pear","","2016_Nov_16_1050"
7,4,4,31,"Y","7",1.583,"","orange","","2016_Nov_16_1050"
7,4,4,32,"B","7",1.989,"strawberry","","","2016_Nov_16_1050"
7,4,4,33,"C","0",2.396,"","pear","","2016_Nov_16_1050"
7,4,4,34,"A","10",2.039,"","banana","","2016_Nov_16_1050"
7,4,4,35,"X","8",1.304,"apple","","","2016_Nov_16_1050"
7,4,4,36,"C","0",1.427,"pear","","","2016_Nov_16_1050"
7,4,4,37,"X","8",2.447,"","apple","","2016_Nov_16_1050"
7,4,4,38,"A","10",1.036,"banana","","","2016_Nov_16_1050"
7,4,4,39,"Y","7",4.539,"orange","","","2016_Nov_16_1050"
7,4,4,40,"B","7",1.351,"","strawberry","","2016_Nov_16_1050"
7,4,5,41,"X","8",0.989,"","apple","","2016_Nov_16_1050"
7,4,5,42,"B","7",1.349,"","strawberry","","2016_Nov_16_1050"
7,4,5,43,"B","7",0.864,"strawberry","","","2016_Nov_16_1050"
7,4,5,44,"Y","7",1.695,"","orange","","2016_Nov_16_1050"
7,4,5,45,"C","0",1.661,"","pear","","2016_Nov_16_1050"
7,4,5,46,"X","8",2.96,"apple","","","2016_Nov_16_1050"
7,4,5,47,"Y","7",1.683,"orange","","","2016_Nov_16_1050"
7,4,5,48,"C","0",1.054,"pear","","","2016_Nov_16_1050"
7,4,5,49,"A","10",0.942,"banana","","","2016_Nov_16_1050"
7,4,5,50,"A","10",1.195,"","banana","","2016_Nov_16_1050"
7,4,6,51,"C","0",1.333,"pear","","","2016_Nov_16_1050"
7,4,6,52,"A","10",1.116,"banana","","","2016_Nov_16_1050"
7,4,6,53,"X","8",1.65,"apple","","","2016_Nov_16_1050"
7,4,6,54,"X","8",0.802,"","apple","","2016_Nov_16_1050"
7,4,6,55,"Y","7",1.036,"orange","","","2016_Nov_16_1050"
7,4,6,56,"B","7",1.039,"","strawberry","","2016_Nov_16_1050"
7,4,6,57,"Y","7",0.958,"","orange","","2016_Nov_16_1050"
7,4,6,58,"A","10",1.273,"","banana","","2016_Nov_16_1050"
7,4,6,59,"B","7",1.57,"strawberry","","","2016_Nov_16_1050"
7,4,6,60,"C","0",1.793,"","pear","","2016_Nov_16_1050"
8,2,1,1,"A","10",5.886,"orange","","","2016_Nov_16_0952"
8,2,1,2,"B","10",1.194,"pear","","","2016_Nov_16_0952"
8,2,1,3,"C","2",2.884,"","apple","","2016_Nov_16_0952"
8,2,1,4,"Y","5",5.537,"strawberry","","","2016_Nov_16_0952"
8,2,1,5,"X","7",5.946,"banana","","","2016_Nov_16_0952"
8,2,1,6,"B","10",1.724,"","pear","","2016_Nov_16_0952"
8,2,1,7,"X","7",1.429,"","banana","","2016_Nov_16_0952"
8,2,1,8,"C","2",2.036,"apple","","","2016_Nov_16_0952"
8,2,1,9,"A","10",1.523,"","orange","","2016_Nov_16_0952"
8,2,1,10,"Y","4",3.021,"","strawberry","","2016_Nov_16_0952"
8,2,2,11,"C","2",1.585,"","apple","","2016_Nov_16_0952"
8,2,2,12,"B","10",1.552,"","pear","","2016_Nov_16_0952"
8,2,2,13,"B","10",1.085,"pear","","","2016_Nov_16_0952"
8,2,2,14,"X","7",2.599,"","banana","","2016_Nov_16_0952"
8,2,2,15,"A","10",2.021,"","orange","","2016_Nov_16_0952"
8,2,2,16,"Y","5",2.052,"strawberry","","","2016_Nov_16_0952"
8,2,2,17,"A","10",1.346,"orange","","","2016_Nov_16_0952"
8,2,2,18,"C","2",1.442,"apple","","","2016_Nov_16_0952"
8,2,2,19,"X","7",1.57,"banana","","","2016_Nov_16_0952"
8,2,2,20,"Y","5",2.07,"","strawberry","","2016_Nov_16_0952"
8,2,3,21,"A","10",1.365,"orange","","","2016_Nov_16_0952"
8,2,3,22,"Y","5",1.786,"","strawberry","","2016_Nov_16_0952"
8,2,3,23,"Y","5",0.864,"strawberry","","","2016_Nov_16_0952"
8,2,3,24,"X","7",1.052,"banana","","","2016_Nov_16_0952"
8,2,3,25,"A","10",1.085,"","orange","","2016_Nov_16_0952"
8,2,3,26,"B","10",0.927,"","pear","","2016_Nov_16_0952"
8,2,3,27,"B","10",1.396,"pear","","","2016_Nov_16_0952"
8,2,3,28,"C","2",1.223,"apple","","","2016_Nov_16_0952"
8,2,3,29,"X","7",2.319,"","banana","","2016_Nov_16_0952"
8,2,3,30,"C","2",1.474,"","apple","","2016_Nov_16_0952"
8,2,4,31,"X","7",2.521,"banana","","","2016_Nov_16_0952"
8,2,4,32,"X","7",0.614,"","banana","","2016_Nov_16_0952"
8,2,4,33,"B","10",1.24,"pear","","","2016_Nov_16_0952"
8,2,4,34,"A","10",1.132,"","orange","","2016_Nov_16_0952"
8,2,4,35,"C","2",1.306,"apple","","","2016_Nov_16_0952"
8,2,4,36,"A","10",1.24,"orange","","","2016_Nov_16_0952"
8,2,4,37,"Y","5",1.849,"strawberry","","","2016_Nov_16_0952"
8,2,4,38,"Y","5",1.302,"","strawberry","","2016_Nov_16_0952"
8,2,4,39,"B","10",2.327,"","pear","","2016_Nov_16_0952"
8,2,4,40,"C","2",1.302,"","apple","","2016_Nov_16_0952"
8,2,5,41,"A","10",1.161,"","orange","","2016_Nov_16_0952"
8,2,5,42,"X","7",1.235,"","banana","","2016_Nov_16_0952"
8,2,5,43,"C","2",1.632,"","apple","","2016_Nov_16_0952"
8,2,5,44,"B","10",1.271,"","pear","","2016_Nov_16_0952"
8,2,5,45,"Y","5",1.382,"","strawberry","","2016_Nov_16_0952"
8,2,5,46,"A","10",1.599,"orange","","","2016_Nov_16_0952"
8,2,5,47,"B","10",1.346,"pear","","","2016_Nov_16_0952"
8,2,5,48,"Y","5",1.659,"strawberry","","","2016_Nov_16_0952"
8,2,5,49,"C","2",1.565,"apple","","","2016_Nov_16_0952"
8,2,5,50,"X","7",1.55,"banana","","","2016_Nov_16_0952"
8,2,6,51,"Y","5",1.393,"strawberry","","","2016_Nov_16_0952"
8,2,6,52,"B","10",1.487,"","pear","","2016_Nov_16_0952"
8,2,6,53,"X","7",2.018,"banana","","","2016_Nov_16_0952"
8,2,6,54,"X","7",0.896,"","banana","","2016_Nov_16_0952"
8,2,6,55,"C","2",1.067,"apple","","","2016_Nov_16_0952"
8,2,6,56,"Y","5",1.302,"","strawberry","","2016_Nov_16_0952"
8,2,6,57,"C","2",1.043,"","apple","","2016_Nov_16_0952"
8,2,6,58,"A","10",1.007,"orange","","","2016_Nov_16_0952"
8,2,6,59,"B","10",0.991,"pear","","","2016_Nov_16_0952"
8,2,6,60,"A","10",1.069,"","orange","","2016_Nov_16_0952"
8,4,1,1,"Y","6",6.965,"","strawberry","","2016_Nov_16_0952"
8,4,1,2,"Y","6",0.853,"strawberry","","","2016_Nov_16_0952"
8,4,1,3,"X","8",4.458,"","banana","","2016_Nov_16_0952"
8,4,1,4,"B","10",1.427,"pear","","","2016_Nov_16_0952"
8,4,1,5,"B","10",0.864,"","pear","","2016_Nov_16_0952"
8,4,1,6,"A","10",1.339,"","orange","","2016_Nov_16_0952"
8,4,1,7,"C","2",1.469,"apple","","","2016_Nov_16_0952"
8,4,1,8,"X","8",1.021,"banana","","","2016_Nov_16_0952"
8,4,1,9,"A","10",1.273,"orange","","","2016_Nov_16_0952"
8,4,1,10,"C","2",1.309,"","apple","","2016_Nov_16_0952"
8,4,2,11,"X","8",1.586,"","banana","","2016_Nov_16_0952"
8,4,2,12,"X","8",0.677,"banana","","","2016_Nov_16_0952"
8,4,2,13,"Y","6",2.27,"strawberry","","","2016_Nov_16_0952"
8,4,2,14,"B","10",1.054,"","pear","","2016_Nov_16_0952"
8,4,2,15,"A","10",1.039,"","orange","","2016_Nov_16_0952"
8,4,2,16,"A","10",0.757,"orange","","","2016_Nov_16_0952"
8,4,2,17,"C","2",1.077,"apple","","","2016_Nov_16_0952"
8,4,2,18,"B","10",1.177,"pear","","","2016_Nov_16_0952"
8,4,2,19,"C","10",1.009,"","apple","","2016_Nov_16_0952"
8,4,2,20,"Y","7",3.538,"","strawberry","","2016_Nov_16_0952"
8,4,3,21,"C","2",1.101,"apple","","","2016_Nov_16_0952"
8,4,3,22,"A","10",1.49,"orange","","","2016_Nov_16_0952"
8,4,3,23,"B","10",0.757,"pear","","","2016_Nov_16_0952"
8,4,3,24,"B","10",0.506,"","pear","","2016_Nov_16_0952"
8,4,3,25,"X","10",0.962,"banana","","","2016_Nov_16_0952"
8,4,3,26,"A","10",2.71,"","orange","","2016_Nov_16_0952"
8,4,3,27,"Y","7",1.177,"strawberry","","","2016_Nov_16_0952"
8,4,3,28,"C","2",1.255,"","apple","","2016_Nov_16_0952"
8,4,3,29,"X","8",3.101,"","banana","","2016_Nov_16_0952"
8,4,3,30,"Y","7",0.989,"","strawberry","","2016_Nov_16_0952"
8,4,4,31,"X","8",0.974,"","banana","","2016_Nov_16_0952"
8,4,4,32,"A","10",1.099,"","orange","","2016_Nov_16_0952"
8,4,4,33,"Y","7",0.989,"","strawberry","","2016_Nov_16_0952"
8,4,4,34,"C","2",1.168,"","apple","","2016_Nov_16_0952"
8,4,4,35,"X","8",1.583,"banana","","","2016_Nov_16_0952"
8,4,4,36,"B","10",1.161,"pear","","","2016_Nov_16_0952"
8,4,4,37,"B","10",1.052,"","pear","","2016_Nov_16_0952"
8,4,4,38,"A","10",0.944,"orange","","","2016_Nov_16_0952"
8,4,4,39,"C","2",1.318,"apple","","","2016_Nov_16_0952"
8,4,4,40,"Y","7",2.554,"strawberry","","","2016_Nov_16_0952"
8,4,5,41,"A","10",2.536,"orange","","","2016_Nov_16_0952"
8,4,5,42,"B","10",1.177,"pear","","","2016_Nov_16_0952"
8,4,5,43,"B","10",0.944,"","pear","","2016_Nov_16_0952"
8,4,5,44,"C","2",2.005,"","apple","","2016_Nov_16_0952"
8,4,5,45,"X","8",1.695,"banana","","","2016_Nov_16_0952"
8,4,5,46,"A","10",1.239,"","orange","","2016_Nov_16_0952"
8,4,5,47,"Y","7",1.021,"","strawberry","","2016_Nov_16_0952"
8,4,5,48,"C","2",1.083,"apple","","","2016_Nov_16_0952"
8,4,5,49,"Y","7",1.224,"strawberry","","","2016_Nov_16_0952"
8,4,5,50,"X","8",0.802,"","banana","","2016_Nov_16_0952"
8,4,6,51,"B","10",0.757,"","pear","","2016_Nov_16_0952"
8,4,6,52,"C","2",1.208,"","apple","","2016_Nov_16_0952"
8,4,6,53,"X","8",2.927,"","banana","","2016_Nov_16_0952"
8,4,6,54,"C","2",1.538,"apple","","","2016_Nov_16_0952"
8,4,6,55,"X","8",1.179,"banana","","","2016_Nov_16_0952"
8,4,6,56,"Y","7",0.71,"","strawberry","","2016_Nov_16_0952"
8,4,6,57,"B","10",1.364,"pear","","","2016_Nov_16_0952"
8,4,6,58,"A","10",0.882,"","orange","","2016_Nov_16_0952"
8,4,6,59,"Y","7",2.475,"strawberry","","","2016_Nov_16_0952"
8,4,6,60,"A","10",1.927,"orange","","","2016_Nov_16_0952"
9,2,1,1,"A","8",11.977,"pear","","","2016_Nov_16_1129"
9,2,1,2,"B","6",5.773,"apple","","","2016_Nov_16_1129"
9,2,1,3,"Y","7",2.162,"banana","","","2016_Nov_16_1129"
9,2,1,4,"A","8",2.552,"","pear","","2016_Nov_16_1129"
9,2,1,5,"C","2",1.489,"","strawberry","","2016_Nov_16_1129"
9,2,1,6,"X","8",1.804,"","orange","","2016_Nov_16_1129"
9,2,1,7,"Y","7",1.664,"","banana","","2016_Nov_16_1129"
9,2,1,8,"X","8",1.523,"orange","","","2016_Nov_16_1129"
9,2,1,9,"B","5",2.552,"","apple","","2016_Nov_16_1129"
9,2,1,10,"C","2",4.224,"strawberry","","","2016_Nov_16_1129"
9,2,2,11,"Y","7",3.054,"banana","","","2016_Nov_16_1129"
9,2,2,12,"X","7",1.911,"","orange","","2016_Nov_16_1129"
9,2,2,13,"B","5",1.646,"apple","","","2016_Nov_16_1129"
9,2,2,14,"A","8",1.755,"pear","","","2016_Nov_16_1129"
9,2,2,15,"C","2",1.49,"strawberry","","","2016_Nov_16_1129"
9,2,2,16,"X","6",1.208,"orange","","","2016_Nov_16_1129"
9,2,2,17,"C","2",1.32,"","strawberry","","2016_Nov_16_1129"
9,2,2,18,"A","8",1.161,"","pear","","2016_Nov_16_1129"
9,2,2,19,"Y","7",2.427,"","banana","","2016_Nov_16_1129"
9,2,2,20,"B","5",1.194,"","apple","","2016_Nov_16_1129"
9,2,3,21,"C","2",1.474,"strawberry","","","2016_Nov_16_1129"
9,2,3,22,"X","7",1.365,"orange","","","2016_Nov_16_1129"
9,2,3,23,"B","5",4.746,"apple","","","2016_Nov_16_1129"
9,2,3,24,"A","8",1.286,"pear","","","2016_Nov_16_1129"
9,2,3,25,"Y","6",1.708,"","banana","","2016_Nov_16_1129"
9,2,3,26,"A","8",1.318,"","pear","","2016_Nov_16_1129"
9,2,3,27,"C","2",1.424,"","strawberry","","2016_Nov_16_1129"
9,2,3,28,"X","6",4.724,"","orange","","2016_Nov_16_1129"
9,2,3,29,"B","5",1.786,"","apple","","2016_Nov_16_1129"
9,2,3,30,"Y","7",1.333,"banana","","","2016_Nov_16_1129"
9,2,4,31,"C","2",1.302,"strawberry","","","2016_Nov_16_1129"
9,2,4,32,"X","6",3.583,"","orange","","2016_Nov_16_1129"
9,2,4,33,"X","6",2.882,"orange","","","2016_Nov_16_1129"
9,2,4,34,"A","8",1.521,"pear","","","2016_Nov_16_1129"
9,2,4,35,"C","2",1.177,"","strawberry","","2016_Nov_16_1129"
9,2,4,36,"B","5",7.005,"apple","","","2016_Nov_16_1129"
9,2,4,37,"A","7",0.82,"","pear","","2016_Nov_16_1129"
9,2,4,38,"Y","6",1.536,"banana","","","2016_Nov_16_1129"
9,2,4,39,"B","5",3.724,"","apple","","2016_Nov_16_1129"
9,2,4,40,"Y","6",1.52,"","banana","","2016_Nov_16_1129"
9,2,5,41,"B","5",0.929,"apple","","","2016_Nov_16_1129"
9,2,5,42,"Y","6",0.708,"","banana","","2016_Nov_16_1129"
9,2,5,43,"A","8",1.724,"pear","","","2016_Nov_16_1129"
9,2,5,44,"X","5",4.226,"","orange","","2016_Nov_16_1129"
9,2,5,45,"C","2",1.177,"strawberry","","","2016_Nov_16_1129"
9,2,5,46,"Y","7",1.271,"banana","","","2016_Nov_16_1129"
9,2,5,47,"B","4",1.63,"","apple","","2016_Nov_16_1129"
9,2,5,48,"X","6",1.38,"orange","","","2016_Nov_16_1129"
9,2,5,49,"C","2",1.88,"","strawberry","","2016_Nov_16_1129"
9,2,5,50,"A","8",1.083,"","pear","","2016_Nov_16_1129"
9,2,6,51,"Y","6",1.677,"banana","","","2016_Nov_16_1129"
9,2,6,52,"A","8",1.412,"pear","","","2016_Nov_16_1129"
9,2,6,53,"C","2",1.241,"strawberry","","","2016_Nov_16_1129"
9,2,6,54,"X","6",1.271,"","orange","","2016_Nov_16_1129"
9,2,6,55,"C","2",1.443,"","strawberry","","2016_Nov_16_1129"
9,2,6,56,"A","8",2.599,"","pear","","2016_Nov_16_1129"
9,2,6,57,"B","5",1.177,"apple","","","2016_Nov_16_1129"
9,2,6,58,"B","5",0.507,"","apple","","2016_Nov_16_1129"
9,2,6,59,"Y","7",0.958,"","banana","","2016_Nov_16_1129"
9,2,6,60,"X","6",5.07,"orange","","","2016_Nov_16_1129"
9,4,1,1,"A","8",2.677,"pear","","","2016_Nov_16_1129"
9,4,1,2,"X","7",1.349,"orange","","","2016_Nov_16_1129"
9,4,1,3,"A","8",0.74,"","pear","","2016_Nov_16_1129"
9,4,1,4,"Y","7",1.114,"banana","","","2016_Nov_16_1129"
9,4,1,5,"B","4",2.146,"","apple","","2016_Nov_16_1129"
9,4,1,6,"X","7",1.19,"","orange","","2016_Nov_16_1129"
9,4,1,7,"C","2",1.039,"strawberry","","","2016_Nov_16_1129"
9,4,1,8,"Y","7",1.289,"","banana","","2016_Nov_16_1129"
9,4,1,9,"C","2",1.07,"","strawberry","","2016_Nov_16_1129"
9,4,1,10,"B","4",2.242,"apple","","","2016_Nov_16_1129"
9,4,2,11,"B","4",0.489,"apple","","","2016_Nov_16_1129"
9,4,2,12,"C","2",1.724,"","strawberry","","2016_Nov_16_1129"
9,4,2,13,"X","7",1.583,"","orange","","2016_Nov_16_1129"
9,4,2,14,"A","8",2.505,"pear","","","2016_Nov_16_1129"
9,4,2,15,"Y","7",1.161,"banana","","","2016_Nov_16_1129"
9,4,2,16,"B","4",1.116,"","apple","","2016_Nov_16_1129"
9,4,2,17,"A","8",1.161,"","pear","","2016_Nov_16_1129"
9,4,2,18,"C","2",1.257,"strawberry","","","2016_Nov_16_1129"
9,4,2,19,"Y","7",1.083,"","banana","","2016_Nov_16_1129"
9,4,2,20,"X","7",1.554,"orange","","","2016_Nov_16_1129"
9,4,3,21,"A","8",1.851,"pear","","","2016_Nov_16_1129"
9,4,3,22,"Y","7",1.489,"banana","","","2016_Nov_16_1129"
9,4,3,23,"Y","7",0.864,"","banana","","2016_Nov_16_1129"
9,4,3,24,"C","2",1.286,"strawberry","","","2016_Nov_16_1129"
9,4,3,25,"X","7",1.614,"","orange","","2016_Nov_16_1129"
9,4,3,26,"X","7",1.193,"orange","","","2016_Nov_16_1129"
9,4,3,27,"B","4",1.224,"apple","","","2016_Nov_16_1129"
9,4,3,28,"B","4",0.599,"","apple","","2016_Nov_16_1129"
9,4,3,29,"A","9",1.427,"","pear","","2016_Nov_16_1129"
9,4,3,30,"C","2",1.13,"","strawberry","","2016_Nov_16_1129"
9,4,4,31,"A","8",0.974,"pear","","","2016_Nov_16_1129"
9,4,4,32,"C","2",1.081,"","strawberry","","2016_Nov_16_1129"
9,4,4,33,"C","2",0.489,"strawberry","","","2016_Nov_16_1129"
9,4,4,34,"A","8",1.13,"","pear","","2016_Nov_16_1129"
9,4,4,35,"Y","7",1.146,"","banana","","2016_Nov_16_1129"
9,4,4,36,"B","4",1.286,"","apple","","2016_Nov_16_1129"
9,4,4,37,"Y","7",2.117,"banana","","","2016_Nov_16_1129"
9,4,4,38,"B","5",0.956,"apple","","","2016_Nov_16_1129"
9,4,4,39,"X","7",1.067,"orange","","","2016_Nov_16_1129"
9,4,4,40,"X","7",0.49,"","orange","","2016_Nov_16_1129"
9,4,5,41,"B","4",1.245,"","apple","","2016_Nov_16_1129"
9,4,5,42,"X","7",0.974,"orange","","","2016_Nov_16_1129"
9,4,5,43,"Y","7",0.614,"banana","","","2016_Nov_16_1129"
9,4,5,44,"C","2",0.961,"","strawberry","","2016_Nov_16_1129"
9,4,5,45,"C","2",0.445,"strawberry","","","2016_Nov_16_1129"
9,4,5,46,"Y","7",0.818,"","banana","","2016_Nov_16_1129"
9,4,5,47,"A","8",0.945,"","pear","","2016_Nov_16_1129"
9,4,5,48,"A","8",0.599,"pear","","","2016_Nov_16_1129"
9,4,5,49,"X","6",1.382,"","orange","","2016_Nov_16_1129"
9,4,5,50,"B","5",1.007,"apple","","","2016_Nov_16_1129"
9,4,6,51,"C","2",1.193,"","strawberry","","2016_Nov_16_1129"
9,4,6,52,"B","6",0.989,"apple","","","2016_Nov_16_1129"
9,4,6,53,"C","2",1.49,"strawberry","","","2016_Nov_16_1129"
9,4,6,54,"Y","7",0.849,"banana","","","2016_Nov_16_1129"
9,4,6,55,"B","4",0.911,"","apple","","2016_Nov_16_1129"
9,4,6,56,"A","8",0.88,"","pear","","2016_Nov_16_1129"
9,4,6,57,"A","8",0.569,"pear","","","2016_Nov_16_1129"
9,4,6,58,"X","7",1.411,"orange","","","2016_Nov_16_1129"
9,4,6,59,"Y","7",1.239,"","banana","","2016_Nov_16_1129"
9,4,6,60,"X","7",0.82,"","orange","","2016_Nov_16_1129"
10,2,1,1,"A","10",10.924,"strawberry","","","2016_Nov_16_1030"
10,2,1,2,"X","4",4.058,"pear","","","2016_Nov_16_1030"
10,2,1,3,"A","10",1.927,"","strawberry","","2016_Nov_16_1030"
10,2,1,4,"B","9",3.115,"","orange","","2016_Nov_16_1030"
10,2,1,5,"X","4",2.335,"","pear","","2016_Nov_16_1030"
10,2,1,6,"Y","3",2.677,"banana","","","2016_Nov_16_1030"
10,2,1,7,"B","10",2.427,"orange","","","2016_Nov_16_1030"
10,2,1,8,"C","0",2.568,"apple","","","2016_Nov_16_1030"
10,2,1,9,"C","0",1.787,"","apple","","2016_Nov_16_1030"
10,2,1,10,"Y","4",2.201,"","banana","","2016_Nov_16_1030"
10,2,2,11,"B","9",2.163,"","orange","","2016_Nov_16_1030"
10,2,2,12,"Y","4",2.036,"banana","","","2016_Nov_16_1030"
10,2,2,13,"A","10",1.224,"","strawberry","","2016_Nov_16_1030"
10,2,2,14,"B","10",1.07,"orange","","","2016_Nov_16_1030"
10,2,2,15,"C","0",1.552,"apple","","","2016_Nov_16_1030"
10,2,2,16,"A","10",1.677,"strawberry","","","2016_Nov_16_1030"
10,2,2,17,"C","0",1.677,"","apple","","2016_Nov_16_1030"
10,2,2,18,"X","4",1.661,"pear","","","2016_Nov_16_1030"
10,2,2,19,"X","4",1.114,"","pear","","2016_Nov_16_1030"
10,2,2,20,"Y","4",1.302,"","banana","","2016_Nov_16_1030"
10,2,3,21,"Y","4",1.037,"banana","","","2016_Nov_16_1030"
10,2,3,22,"C","0",1.583,"","apple","","2016_Nov_16_1030"
10,2,3,23,"B","10",1.505,"orange","","","2016_Nov_16_1030"
10,2,3,24,"C","0",4.179,"apple","","","2016_Nov_16_1030"
10,2,3,25,"A","10",1.693,"strawberry","","","2016_Nov_16_1030"
10,2,3,26,"X","4",1.896,"","pear","","2016_Nov_16_1030"
10,2,3,27,"B","9",1.661,"","orange","","2016_Nov_16_1030"
10,2,3,28,"A","10",1.786,"","strawberry","","2016_Nov_16_1030"
10,2,3,29,"X","4",2.474,"pear","","","2016_Nov_16_1030"
10,2,3,30,"Y","4",2.114,"","banana","","2016_Nov_16_1030"
10,2,4,31,"X","4",1.695,"","pear","","2016_Nov_16_1030"
10,2,4,32,"B","9",2.021,"","orange","","2016_Nov_16_1030"
10,2,4,33,"A","10",1.288,"strawberry","","","2016_Nov_16_1030"
10,2,4,34,"A","10",0.927,"","strawberry","","2016_Nov_16_1030"
10,2,4,35,"Y","4",2.083,"","banana","","2016_Nov_16_1030"
10,2,4,36,"X","3",1.646,"pear","","","2016_Nov_16_1030"
10,2,4,37,"C","0",1.568,"apple","","","2016_Nov_16_1030"
10,2,4,38,"B","9",1.538,"orange","","","2016_Nov_16_1030"
10,2,4,39,"Y","4",1.474,"banana","","","2016_Nov_16_1030"
10,2,4,40,"C","0",1.333,"","apple","","2016_Nov_16_1030"
10,2,5,41,"C","0",0.902,"apple","","","2016_Nov_16_1030"
10,2,5,42,"A","10",1.411,"strawberry","","","2016_Nov_16_1030"
10,2,5,43,"X","4",1.349,"pear","","","2016_Nov_16_1030"
10,2,5,44,"C","0",2.24,"","apple","","2016_Nov_16_1030"
10,2,5,45,"Y","4",1.614,"banana","","","2016_Nov_16_1030"
10,2,5,46,"B","9",1.428,"","orange","","2016_Nov_16_1030"
10,2,5,47,"A","10",1.333,"","strawberry","","2016_Nov_16_1030"
10,2,5,48,"B","9",1.802,"orange","","","2016_Nov_16_1030"
10,2,5,49,"Y","4",1.789,"","banana","","2016_Nov_16_1030"
10,2,5,50,"X","4",1.615,"","pear","","2016_Nov_16_1030"
10,2,6,51,"C","0",1.512,"","apple","","2016_Nov_16_1030"
10,2,6,52,"Y","4",1.677,"banana","","","2016_Nov_16_1030"
10,2,6,53,"C","0",1.366,"apple","","","2016_Nov_16_1030"
10,2,6,54,"A","10",1.368,"","strawberry","","2016_Nov_16_1030"
10,2,6,55,"B","9",1.755,"orange","","","2016_Nov_16_1030"
10,2,6,56,"X","4",1.507,"pear","","","2016_Nov_16_1030"
10,2,6,57,"Y","4",4.38,"","banana","","2016_Nov_16_1030"
10,2,6,58,"A","10",1.239,"strawberry","","","2016_Nov_16_1030"
10,2,6,59,"B","9",2.021,"","orange","","2016_Nov_16_1030"
10,2,6,60,"X","4",2.115,"","pear","","2016_Nov_16_1030"
10,4,1,1,"B","10",4.539,"orange","","","2016_Nov_16_1030"
10,4,1,2,"B","9",1.349,"","orange","","2016_Nov_16_1030"
10,4,1,3,"Y","7",4.476,"banana","","","2016_Nov_16_1030"
10,4,1,4,"X","7",1.865,"pear","","","2016_Nov_16_1030"
10,4,1,5,"C","0",1.489,"","apple","","2016_Nov_16_1030"
10,4,1,6,"A","10",1.132,"","strawberry","","2016_Nov_16_1030"
10,4,1,7,"C","0",1.786,"apple","","","2016_Nov_16_1030"
10,4,1,8,"X","9",2.897,"","pear","","2016_Nov_16_1030"
10,4,1,9,"Y","8",1.099,"","banana","","2016_Nov_16_1030"
10,4,1,10,"A","10",1.599,"strawberry","","","2016_Nov_16_1030"
10,4,2,11,"Y","8",1.351,"","banana","","2016_Nov_16_1030"
10,4,2,12,"Y","8",1.411,"banana","","","2016_Nov_16_1030"
10,4,2,13,"A","10",1.304,"","strawberry","","2016_Nov_16_1030"
10,4,2,14,"B","9",1.661,"","orange","","2016_Nov_16_1030"
10,4,2,15,"X","9",0.989,"","pear","","2016_Nov_16_1030"
10,4,2,16,"C","0",2.365,"","apple","","2016_Nov_16_1030"
10,4,2,17,"B","9",1.976,"orange","","","2016_Nov_16_1030"
10,4,2,18,"A","10",1.239,"strawberry","","","2016_Nov_16_1030"
10,4,2,19,"C","0",1.614,"apple","","","2016_Nov_16_1030"
10,4,2,20,"X","9",2.317,"pear","","","2016_Nov_16_1030"
10,4,3,21,"C","0",1.585,"","apple","","2016_Nov_16_1030"
10,4,3,22,"A","10",1.521,"strawberry","","","2016_Nov_16_1030"
10,4,3,23,"A","10",1.114,"","strawberry","","2016_Nov_16_1030"
10,4,3,24,"B","9",1.444,"","orange","","2016_Nov_16_1030"
10,4,3,25,"C","0",1.367,"apple","","","2016_Nov_16_1030"
10,4,3,26,"X","9",1.708,"pear","","","2016_Nov_16_1030"
10,4,3,27,"X","9",0.864,"","pear","","2016_Nov_16_1030"
10,4,3,28,"Y","8",1.208,"","banana","","2016_Nov_16_1030"
10,4,3,29,"Y","8",0.819,"banana","","","2016_Nov_16_1030"
10,4,3,30,"B","9",1.427,"orange","","","2016_Nov_16_1030"
10,4,4,31,"B","9",0.865,"","orange","","2016_Nov_16_1030"
10,4,4,32,"C","0",1.458,"","apple","","2016_Nov_16_1030"
10,4,4,33,"B","9",1.177,"orange","","","2016_Nov_16_1030"
10,4,4,34,"A","10",1.224,"strawberry","","","2016_Nov_16_1030"
10,4,4,35,"X","9",1.943,"pear","","","2016_Nov_16_1030"
10,4,4,36,"A","10",1.036,"","strawberry","","2016_Nov_16_1030"
10,4,4,37,"X","9",0.929,"","pear","","2016_Nov_16_1030"
10,4,4,38,"Y","8",1.411,"banana","","","2016_Nov_16_1030"
10,4,4,39,"Y","8",0.927,"","banana","","2016_Nov_16_1030"
10,4,4,40,"C","0",1.458,"apple","","","2016_Nov_16_1030"
10,4,5,41,"B","9",1.287,"","orange","","2016_Nov_16_1030"
10,4,5,42,"A","10",1.145,"strawberry","","","2016_Nov_16_1030"
10,4,5,43,"B","9",1.739,"orange","","","2016_Nov_16_1030"
10,4,5,44,"X","8",1.601,"pear","","","2016_Nov_16_1030"
10,4,5,45,"Y","9",1.49,"banana","","","2016_Nov_16_1030"
10,4,5,46,"X","9",1.052,"","pear","","2016_Nov_16_1030"
10,4,5,47,"Y","8",1.365,"","banana","","2016_Nov_16_1030"
10,4,5,48,"A","10",1.241,"","strawberry","","2016_Nov_16_1030"
10,4,5,49,"C","0",1.521,"","apple","","2016_Nov_16_1030"
10,4,5,50,"C","0",1.74,"apple","","","2016_Nov_16_1030"
10,4,6,51,"Y","8",2.239,"","banana","","2016_Nov_16_1030"
10,4,6,52,"Y","8",0.989,"banana","","","2016_Nov_16_1030"
10,4,6,53,"B","9",1.976,"","orange","","2016_Nov_16_1030"
10,4,6,54,"A","10",1.054,"","strawberry","","2016_Nov_16_1030"
10,4,6,55,"A","10",0.804,"strawberry","","","2016_Nov_16_1030"
10,4,6,56,"X","9",1.474,"","pear","","2016_Nov_16_1030"
10,4,6,57,"X","9",0.864,"pear","","","2016_Nov_16_1030"
10,4,6,58,"C","0",1.489,"","apple","","2016_Nov_16_1030"
10,4,6,59,"B","9",1.599,"orange","","","2016_Nov_16_1030"
10,4,6,60,"C","0",1.428,"apple","","","2016_Nov_16_1030"
11,2,1,1,"Y","10",9.351,"banana","","","2016_Nov_18_1052"
11,2,1,2,"C","10",1.318,"apple","","","2016_Nov_18_1052"
11,2,1,3,"A","10",3.632,"","orange","","2016_Nov_18_1052"
11,2,1,4,"B","0",1.804,"","pear","","2016_Nov_18_1052"
11,2,1,5,"A","10",2.271,"orange","","","2016_Nov_18_1052"
11,2,1,6,"X","0",2.068,"","strawberry","","2016_Nov_18_1052"
11,2,1,7,"X","0",1.177,"strawberry","","","2016_Nov_18_1052"
11,2,1,8,"B","5",1.741,"pear","","","2016_Nov_18_1052"
11,2,1,9,"Y","7",3.24,"","banana","","2016_Nov_18_1052"
11,2,1,10,"C","8",0.614,"","apple","","2016_Nov_18_1052"
11,2,2,11,"C","10",0.631,"apple","","","2016_Nov_18_1052"
11,2,2,12,"C","10",2.695,"","apple","","2016_Nov_18_1052"
11,2,2,13,"B","5",1.536,"pear","","","2016_Nov_18_1052"
11,2,2,14,"X","8",1.57,"","strawberry","","2016_Nov_18_1052"
11,2,2,15,"A","10",1.538,"orange","","","2016_Nov_18_1052"
11,2,2,16,"Y","0",1.63,"","banana","","2016_Nov_18_1052"
11,2,2,17,"A","10",2.021,"","orange","","2016_Nov_18_1052"
11,2,2,18,"X","10",2.911,"strawberry","","","2016_Nov_18_1052"
11,2,2,19,"B","0",2.163,"","pear","","2016_Nov_18_1052"
11,2,2,20,"Y","10",1.646,"banana","","","2016_Nov_18_1052"
11,2,3,21,"C","5",1.349,"apple","","","2016_Nov_18_1052"
11,2,3,22,"A","5",1.239,"orange","","","2016_Nov_18_1052"
11,2,3,23,"A","10",1.287,"","orange","","2016_Nov_18_1052"
11,2,3,24,"B","2",2.085,"pear","","","2016_Nov_18_1052"
11,2,3,25,"B","2",2.101,"","pear","","2016_Nov_18_1052"
11,2,3,26,"X","8",4.117,"strawberry","","","2016_Nov_18_1052"
11,2,3,27,"C","5",1.568,"","apple","","2016_Nov_18_1052"
11,2,3,28,"Y","2",1.708,"","banana","","2016_Nov_18_1052"
11,2,3,29,"Y","10",2.552,"banana","","","2016_Nov_18_1052"
11,2,3,30,"X","10",1.364,"","strawberry","","2016_Nov_18_1052"
11,2,4,31,"B","10",1.33,"pear","","","2016_Nov_18_1052"
11,2,4,32,"X","4",1.365,"","strawberry","","2016_Nov_18_1052"
11,2,4,33,"X","3",1.018,"strawberry","","","2016_Nov_18_1052"
11,2,4,34,"A","9",1.831,"","orange","","2016_Nov_18_1052"
11,2,4,35,"C","5",1.926,"apple","","","2016_Nov_18_1052"
11,2,4,36,"Y","5",0.893,"banana","","","2016_Nov_18_1052"
11,2,4,37,"B","10",2.408,"","pear","","2016_Nov_18_1052"
11,2,4,38,"A","10",2.164,"orange","","","2016_Nov_18_1052"
11,2,4,39,"Y","0",1.505,"","banana","","2016_Nov_18_1052"
11,2,4,40,"C","5",2.083,"","apple","","2016_Nov_18_1052"
11,2,5,41,"C","3",1.302,"","apple","","2016_Nov_18_1052"
11,2,5,42,"B","3",1.927,"","pear","","2016_Nov_18_1052"
11,2,5,43,"C","8",1.699,"apple","","","2016_Nov_18_1052"
11,2,5,44,"Y","3",1.427,"banana","","","2016_Nov_18_1052"
11,2,5,45,"A","10",1.49,"","orange","","2016_Nov_18_1052"
11,2,5,46,"B","0",1.57,"pear","","","2016_Nov_18_1052"
11,2,5,47,"X","10",1.929,"","strawberry","","2016_Nov_18_1052"
11,2,5,48,"Y","5",1.474,"","banana","","2016_Nov_18_1052"
11,2,5,49,"X","7",1.749,"strawberry","","","2016_Nov_18_1052"
11,2,5,50,"A","10",2.114,"orange","","","2016_Nov_18_1052"
11,2,6,51,"X","10",1.973,"strawberry","","","2016_Nov_18_1052"
11,2,6,52,"A","10",0.802,"orange","","","2016_Nov_18_1052"
11,2,6,53,"Y","0",1.428,"banana","","","2016_Nov_18_1052"
11,2,6,54,"X","10",2.649,"","strawberry","","2016_Nov_18_1052"
11,2,6,55,"C","10",0.59,"","apple","","2016_Nov_18_1052"
11,2,6,56,"B","5",1.38,"pear","","","2016_Nov_18_1052"
11,2,6,57,"B","0",1.614,"","pear","","2016_Nov_18_1052"
11,2,6,58,"Y","8",1.758,"","banana","","2016_Nov_18_1052"
11,2,6,59,"C","10",1.068,"apple","","","2016_Nov_18_1052"
11,2,6,60,"A","10",1.114,"","orange","","2016_Nov_18_1052"
11,4,1,1,"A","10",4.999,"","orange","","2016_Nov_18_1052"
11,4,1,2,"C","0",2.561,"apple","","","2016_Nov_18_1052"
11,4,1,3,"B","7",3.417,"pear","","","2016_Nov_18_1052"
11,4,1,4,"X","10",3.008,"strawberry","","","2016_Nov_18_1052"
11,4,1,5,"A","10",1.239,"orange","","","2016_Nov_18_1052"
11,4,1,6,"Y","0",1.818,"","banana","","2016_Nov_18_1052"
11,4,1,7,"B","5",1.571,"","pear","","2016_Nov_18_1052"
11,4,1,8,"C","5",1.335,"","apple","","2016_Nov_18_1052"
11,4,1,9,"X","5",1.74,"","strawberry","","2016_Nov_18_1052"
11,4,1,10,"Y","7",1.443,"banana","","","2016_Nov_18_1052"
11,4,2,11,"C","7",2.549,"apple","","","2016_Nov_18_1052"
11,4,2,12,"X","2",0.933,"strawberry","","","2016_Nov_18_1052"
11,4,2,13,"A","10",1.427,"orange","","","2016_Nov_18_1052"
11,4,2,14,"Y","7",2.132,"banana","","","2016_Nov_18_1052"
11,4,2,15,"Y","7",1.788,"","banana","","2016_Nov_18_1052"
11,4,2,16,"X","2",1.521,"","strawberry","","2016_Nov_18_1052"
11,4,2,17,"A","10",1.414,"","orange","","2016_Nov_18_1052"
11,4,2,18,"C","0",1.662,"","apple","","2016_Nov_18_1052"
11,4,2,19,"B","4",1.63,"pear","","","2016_Nov_18_1052"
11,4,2,20,"B","4",0.63,"","pear","","2016_Nov_18_1052"
11,4,3,21,"X","8",2.318,"","strawberry","","2016_Nov_18_1052"
11,4,3,22,"B","2",1.255,"pear","","","2016_Nov_18_1052"
11,4,3,23,"Y","10",1.401,"banana","","","2016_Nov_18_1052"
11,4,3,24,"Y","5",1.351,"","banana","","2016_Nov_18_1052"
11,4,3,25,"A","10",1.365,"orange","","","2016_Nov_18_1052"
11,4,3,26,"C","0",2.367,"","apple","","2016_Nov_18_1052"
11,4,3,27,"C","0",0.554,"apple","","","2016_Nov_18_1052"
11,4,3,28,"B","2",1.21,"","pear","","2016_Nov_18_1052"
11,4,3,29,"X","8",2.083,"strawberry","","","2016_Nov_18_1052"
11,4,3,30,"A","10",1.052,"","orange","","2016_Nov_18_1052"
11,4,4,31,"C","0",2.867,"","apple","","2016_Nov_18_1052"
11,4,4,32,"B","2",1.211,"pear","","","2016_Nov_18_1052"
11,4,4,33,"A","10",1.427,"","orange","","2016_Nov_18_1052"
11,4,4,34,"X","8",0.896,"","strawberry","","2016_Nov_18_1052"
11,4,4,35,"Y","5",4.447,"","banana","","2016_Nov_18_1052"
11,4,4,36,"Y","5",0.632,"banana","","","2016_Nov_18_1052"
11,4,4,37,"A","10",1.099,"orange","","","2016_Nov_18_1052"
11,4,4,38,"B","2",2.382,"","pear","","2016_Nov_18_1052"
11,4,4,39,"C","0",1.005,"apple","","","2016_Nov_18_1052"
11,4,4,40,"X","8",2.43,"strawberry","","","2016_Nov_18_1052"
11,4,5,41,"X","8",0.552,"strawberry","","","2016_Nov_18_1052"
11,4,5,42,"A","10",1.133,"","orange","","2016_Nov_18_1052"
11,4,5,43,"A","10",0.724,"orange","","","2016_Nov_18_1052"
11,4,5,44,"X","8",1.195,"","strawberry","","2016_Nov_18_1052"
11,4,5,45,"C","0",1.396,"apple","","","2016_Nov_18_1052"
11,4,5,46,"Y","5",2.474,"banana","","","2016_Nov_18_1052"
11,4,5,47,"B","2",2.161,"","pear","","2016_Nov_18_1052"
11,4,5,48,"B","2",0.614,"pear","","","2016_Nov_18_1052"
11,4,5,49,"Y","5",2.449,"","banana","","2016_Nov_18_1052"
11,4,5,50,"C","0",1.161,"","apple","","2016_Nov_18_1052"
11,4,6,51,"X","8",1.115,"strawberry","","","2016_Nov_18_1052"
11,4,6,52,"A","10",1.429,"orange","","","2016_Nov_18_1052"
11,4,6,53,"B","2",2.136,"","pear","","2016_Nov_18_1052"
11,4,6,54,"C","0",1.007,"","apple","","2016_Nov_18_1052"
11,4,6,55,"C","0",1.208,"apple","","","2016_Nov_18_1052"
11,4,6,56,"X","8",1.664,"","strawberry","","2016_Nov_18_1052"
11,4,6,57,"Y","10",1.32,"banana","","","2016_Nov_18_1052"
11,4,6,58,"A","5",1.882,"","orange","","2016_Nov_18_1052"
11,4,6,59,"B","2",3.261,"pear","","","2016_Nov_18_1052"
11,4,6,60,"Y","8",1.927,"","banana","","2016_Nov_18_1052"
12,2,1,1,"C","2",56.596,"pear","","","2016_Nov_16_1054"
12,2,1,2,"X","8",2.005,"orange","","","2016_Nov_16_1054"
12,2,1,3,"C","2",5.209,"","pear","","2016_Nov_16_1054"
12,2,1,4,"Y","4",3.554,"","apple","","2016_Nov_16_1054"
12,2,1,5,"X","10",4.661,"","orange","","2016_Nov_16_1054"
12,2,1,6,"Y","4",9.287,"apple","","","2016_Nov_16_1054"
12,2,1,7,"B","8",3.461,"","banana","","2016_Nov_16_1054"
12,2,1,8,"A","10",1.692,"","strawberry","","2016_Nov_16_1054"
12,2,1,9,"A","10",2.837,"strawberry","","","2016_Nov_16_1054"
12,2,1,10,"B","8",5.13,"banana","","","2016_Nov_16_1054"
12,2,2,11,"A","10",2.258,"strawberry","","","2016_Nov_16_1054"
12,2,2,12,"X","7",2.396,"","orange","","2016_Nov_16_1054"
12,2,2,13,"Y","4",1.474,"apple","","","2016_Nov_16_1054"
12,2,2,14,"X","9",4.583,"orange","","","2016_Nov_16_1054"
12,2,2,15,"C","2",1.927,"","pear","","2016_Nov_16_1054"
12,2,2,16,"B","4",4.646,"","banana","","2016_Nov_16_1054"
12,2,2,17,"A","10",2.084,"","strawberry","","2016_Nov_16_1054"
12,2,2,18,"Y","7",5.32,"","apple","","2016_Nov_16_1054"
12,2,2,19,"B","8",4.118,"banana","","","2016_Nov_16_1054"
12,2,2,20,"C","2",2.443,"pear","","","2016_Nov_16_1054"
12,2,3,21,"X","10",2.618,"","orange","","2016_Nov_16_1054"
12,2,3,22,"B","4",3.74,"","banana","","2016_Nov_16_1054"
12,2,3,23,"C","2",4.224,"pear","","","2016_Nov_16_1054"
12,2,3,24,"A","9",2.521,"strawberry","","","2016_Nov_16_1054"
12,2,3,25,"X","9",2.32,"orange","","","2016_Nov_16_1054"
12,2,3,26,"B","5",1.896,"banana","","","2016_Nov_16_1054"
12,2,3,27,"Y","4",10.536,"","apple","","2016_Nov_16_1054"
12,2,3,28,"C","2",1.804,"","pear","","2016_Nov_16_1054"
12,2,3,29,"Y","4",1.242,"apple","","","2016_Nov_16_1054"
12,2,3,30,"A","10",2.208,"","strawberry","","2016_Nov_16_1054"
12,2,4,31,"B","7",4.13,"banana","","","2016_Nov_16_1054"
12,2,4,32,"A","10",1.771,"","strawberry","","2016_Nov_16_1054"
12,2,4,33,"X","0",8.63,"","orange","","2016_Nov_16_1054"
12,2,4,34,"X","10",4.443,"orange","","","2016_Nov_16_1054"
12,2,4,35,"B","4",5.833,"","banana","","2016_Nov_16_1054"
12,2,4,36,"A","10",2.865,"strawberry","","","2016_Nov_16_1054"
12,2,4,37,"C","4",5.052,"pear","","","2016_Nov_16_1054"
12,2,4,38,"C","4",2.802,"","pear","","2016_Nov_16_1054"
12,2,4,39,"Y","2",3.302,"apple","","","2016_Nov_16_1054"
12,2,4,40,"Y","2",2.74,"","apple","","2016_Nov_16_1054"
12,2,5,41,"X","9",4.318,"","orange","","2016_Nov_16_1054"
12,2,5,42,"A","9",4.96,"","strawberry","","2016_Nov_16_1054"
12,2,5,43,"C","2",4.459,"","pear","","2016_Nov_16_1054"
12,2,5,44,"C","2",5.633,"pear","","","2016_Nov_16_1054"
12,2,5,45,"X","10",3.114,"orange","","","2016_Nov_16_1054"
12,2,5,46,"B","3",3.788,"banana","","","2016_Nov_16_1054"
12,2,5,47,"A","10",3.036,"strawberry","","","2016_Nov_16_1054"
12,2,5,48,"Y","4",4.271,"","apple","","2016_Nov_16_1054"
12,2,5,49,"Y","4",3.005,"apple","","","2016_Nov_16_1054"
12,2,5,50,"B","2",1.771,"","banana","","2016_Nov_16_1054"
12,2,6,51,"X","10",1.991,"orange","","","2016_Nov_16_1054"
12,2,6,52,"C","2",1.943,"pear","","","2016_Nov_16_1054"
12,2,6,53,"B","4",1.976,"banana","","","2016_Nov_16_1054"
12,2,6,54,"Y","3",2.224,"","apple","","2016_Nov_16_1054"
12,2,6,55,"C","3",2.74,"","pear","","2016_Nov_16_1054"
12,2,6,56,"X","10",1.552,"","orange","","2016_Nov_16_1054"
12,2,6,57,"A","10",0.976,"","strawberry","","2016_Nov_16_1054"
12,2,6,58,"Y","2",2.648,"apple","","","2016_Nov_16_1054"
12,2,6,59,"A","10",2.6,"strawberry","","","2016_Nov_16_1054"
12,2,6,60,"B","2",2.587,"","banana","","2016_Nov_16_1054"
12,4,1,1,"C","2",5.962,"pear","","","2016_Nov_16_1054"
12,4,1,2,"A","10",1.242,"strawberry","","","2016_Nov_16_1054"
12,4,1,3,"B","2",6.662,"","banana","","2016_Nov_16_1054"
12,4,1,4,"C","2",1.302,"","pear","","2016_Nov_16_1054"
12,4,1,5,"B","2",1.271,"banana","","","2016_Nov_16_1054"
12,4,1,6,"X","10",2.927,"orange","","","2016_Nov_16_1054"
12,4,1,7,"Y","2",3.898,"apple","","","2016_Nov_16_1054"
12,4,1,8,"Y","2",1.427,"","apple","","2016_Nov_16_1054"
12,4,1,9,"A","10",2.052,"","strawberry","","2016_Nov_16_1054"
12,4,1,10,"X","10",1.007,"","orange","","2016_Nov_16_1054"
12,4,2,11,"Y","2",1.601,"apple","","","2016_Nov_16_1054"
12,4,2,12,"X","10",2.819,"","orange","","2016_Nov_16_1054"
12,4,2,13,"B","2",2.193,"","banana","","2016_Nov_16_1054"
12,4,2,14,"X","10",3.583,"orange","","","2016_Nov_16_1054"
12,4,2,15,"A","10",0.882,"strawberry","","","2016_Nov_16_1054"
12,4,2,16,"C","2",1.646,"","pear","","2016_Nov_16_1054"
12,4,2,17,"A","10",1.896,"","strawberry","","2016_Nov_16_1054"
12,4,2,18,"Y","2",4.338,"","apple","","2016_Nov_16_1054"
12,4,2,19,"C","2",1.632,"pear","","","2016_Nov_16_1054"
12,4,2,20,"B","2",1.036,"banana","","","2016_Nov_16_1054"
12,4,3,21,"C","2",1.49,"","pear","","2016_Nov_16_1054"
12,4,3,22,"X","10",2.896,"orange","","","2016_Nov_16_1054"
12,4,3,23,"A","10",0.927,"","strawberry","","2016_Nov_16_1054"
12,4,3,24,"Y","3",2.146,"apple","","","2016_Nov_16_1054"
12,4,3,25,"C","2",2.445,"pear","","","2016_Nov_16_1054"
12,4,3,26,"A","10",1.856,"strawberry","","","2016_Nov_16_1054"
12,4,3,27,"Y","2",2.693,"","apple","","2016_Nov_16_1054"
12,4,3,28,"X","10",1.96,"","orange","","2016_Nov_16_1054"
12,4,3,29,"B","2",1.583,"","banana","","2016_Nov_16_1054"
12,4,3,30,"B","2",3.24,"banana","","","2016_Nov_16_1054"
12,4,4,31,"B","2",1.49,"banana","","","2016_Nov_16_1054"
12,4,4,32,"C","2",1.239,"pear","","","2016_Nov_16_1054"
12,4,4,33,"Y","2",1.724,"apple","","","2016_Nov_16_1054"
12,4,4,34,"B","2",2.552,"","banana","","2016_Nov_16_1054"
12,4,4,35,"X","10",1.833,"","orange","","2016_Nov_16_1054"
12,4,4,36,"A","10",2.083,"strawberry","","","2016_Nov_16_1054"
12,4,4,37,"X","10",1.536,"orange","","","2016_Nov_16_1054"
12,4,4,38,"C","2",2.146,"","pear","","2016_Nov_16_1054"
12,4,4,39,"A","10",2.661,"","strawberry","","2016_Nov_16_1054"
12,4,4,40,"Y","2",2.162,"","apple","","2016_Nov_16_1054"
12,4,5,41,"C","2",1.349,"","pear","","2016_Nov_16_1054"
12,4,5,42,"A","10",1.833,"strawberry","","","2016_Nov_16_1054"
12,4,5,43,"C","2",1.693,"pear","","","2016_Nov_16_1054"
12,4,5,44,"X","10",2.117,"orange","","","2016_Nov_16_1054"
12,4,5,45,"X","10",2.882,"","orange","","2016_Nov_16_1054"
12,4,5,46,"B","2",1.513,"banana","","","2016_Nov_16_1054"
12,4,5,47,"Y","2",2.052,"","apple","","2016_Nov_16_1054"
12,4,5,48,"Y","2",1.239,"apple","","","2016_Nov_16_1054"
12,4,5,49,"B","2",3.552,"","banana","","2016_Nov_16_1054"
12,4,5,50,"A","10",1.849,"","strawberry","","2016_Nov_16_1054"
12,4,6,51,"X","10",1.257,"orange","","","2016_Nov_16_1054"
12,4,6,52,"Y","2",1.409,"","apple","","2016_Nov_16_1054"
12,4,6,53,"C","2",0.99,"","pear","","2016_Nov_16_1054"
12,4,6,54,"Y","2",0.989,"apple","","","2016_Nov_16_1054"
12,4,6,55,"A","10",1.865,"","strawberry","","2016_Nov_16_1054"
12,4,6,56,"C","2",1.399,"pear","","","2016_Nov_16_1054"
12,4,6,57,"B","3",3.818,"","banana","","2016_Nov_16_1054"
12,4,6,58,"X","10",1.976,"","orange","","2016_Nov_16_1054"
12,4,6,59,"A","10",1.24,"strawberry","","","2016_Nov_16_1054"
12,4,6,60,"B","3",1.63,"banana","","","2016_Nov_16_1054"
13,2,1,1,"X","4",10.365,"","strawberry","","2016_Nov_17_1325"
13,2,1,2,"C","0",5.334,"","orange","","2016_Nov_17_1325"
13,2,1,3,"X","3",4.943,"strawberry","","","2016_Nov_17_1325"
13,2,1,4,"A","10",8.773,"","pear","","2016_Nov_17_1325"
13,2,1,5,"C","0",2.162,"orange","","","2016_Nov_17_1325"
13,2,1,6,"B","6",9.245,"","apple","","2016_Nov_17_1325"
13,2,1,7,"B","6",3.443,"apple","","","2016_Nov_17_1325"
13,2,1,8,"Y","1",3.648,"banana","","","2016_Nov_17_1325"
13,2,1,9,"A","9",4.396,"pear","","","2016_Nov_17_1325"
13,2,1,10,"Y","0",2.615,"","banana","","2016_Nov_17_1325"
13,2,2,11,"A","10",6.318,"pear","","","2016_Nov_17_1325"
13,2,2,12,"C","0",2.13,"orange","","","2016_Nov_17_1325"
13,2,2,13,"B","7",3.193,"apple","","","2016_Nov_17_1325"
13,2,2,14,"Y","1",2.054,"","banana","","2016_Nov_17_1325"
13,2,2,15,"X","4",2.508,"","strawberry","","2016_Nov_17_1325"
13,2,2,16,"X","4",1.695,"strawberry","","","2016_Nov_17_1325"
13,2,2,17,"A","10",7.568,"","pear","","2016_Nov_17_1325"
13,2,2,18,"Y","0",2.117,"banana","","","2016_Nov_17_1325"
13,2,2,19,"B","5",5.74,"","apple","","2016_Nov_17_1325"
13,2,2,20,"C","0",2.068,"","orange","","2016_Nov_17_1325"
13,2,3,21,"B","6",2.929,"apple","","","2016_Nov_17_1325"
13,2,3,22,"C","0",2.742,"","orange","","2016_Nov_17_1325"
13,2,3,23,"B","6",4.823,"","apple","","2016_Nov_17_1325"
13,2,3,24,"A","10",1.804,"","pear","","2016_Nov_17_1325"
13,2,3,25,"C","0",1.536,"orange","","","2016_Nov_17_1325"
13,2,3,26,"X","4",5.146,"strawberry","","","2016_Nov_17_1325"
13,2,3,27,"Y","1",2.833,"banana","","","2016_Nov_17_1325"
13,2,3,28,"A","9",1.771,"pear","","","2016_Nov_17_1325"
13,2,3,29,"X","4",3.65,"","strawberry","","2016_Nov_17_1325"
13,2,3,30,"Y","0",2.068,"","banana","","2016_Nov_17_1325"
13,2,4,31,"Y","0",3.099,"banana","","","2016_Nov_17_1325"
13,2,4,32,"A","9",2.507,"","pear","","2016_Nov_17_1325"
13,2,4,33,"B","7",3.787,"","apple","","2016_Nov_17_1325"
13,2,4,34,"C","0",1.71,"","orange","","2016_Nov_17_1325"
13,2,4,35,"X","5",8.178,"strawberry","","","2016_Nov_17_1325"
13,2,4,36,"B","7",1.337,"apple","","","2016_Nov_17_1325"
13,2,4,37,"C","0",1.166,"orange","","","2016_Nov_17_1325"
13,2,4,38,"Y","0",2.115,"","banana","","2016_Nov_17_1325"
13,2,4,39,"X","4",1.818,"","strawberry","","2016_Nov_17_1325"
13,2,4,40,"A","9",1.865,"pear","","","2016_Nov_17_1325"
13,2,5,41,"B","7",5.959,"","apple","","2016_Nov_17_1325"
13,2,5,42,"B","8",5.617,"apple","","","2016_Nov_17_1325"
13,2,5,43,"Y","0",2.117,"","banana","","2016_Nov_17_1325"
13,2,5,44,"X","5",2.865,"strawberry","","","2016_Nov_17_1325"
13,2,5,45,"C","0",1.663,"","orange","","2016_Nov_17_1325"
13,2,5,46,"X","4",2.021,"","strawberry","","2016_Nov_17_1325"
13,2,5,47,"A","9",4.32,"pear","","","2016_Nov_17_1325"
13,2,5,48,"Y","0",1.96,"banana","","","2016_Nov_17_1325"
13,2,5,49,"A","9",2.679,"","pear","","2016_Nov_17_1325"
13,2,5,50,"C","0",1.958,"orange","","","2016_Nov_17_1325"
13,2,6,51,"X","4",1.93,"","strawberry","","2016_Nov_17_1325"
13,2,6,52,"B","7",1.833,"","apple","","2016_Nov_17_1325"
13,2,6,53,"C","0",2.005,"","orange","","2016_Nov_17_1325"
13,2,6,54,"X","5",2.615,"strawberry","","","2016_Nov_17_1325"
13,2,6,55,"A","9",2.161,"","pear","","2016_Nov_17_1325"
13,2,6,56,"Y","0",2.052,"","banana","","2016_Nov_17_1325"
13,2,6,57,"A","10",1.771,"pear","","","2016_Nov_17_1325"
13,2,6,58,"B","8",1.99,"apple","","","2016_Nov_17_1325"
13,2,6,59,"Y","0",1.802,"banana","","","2016_Nov_17_1325"
13,2,6,60,"C","0",0.927,"orange","","","2016_Nov_17_1325"
13,4,1,1,"C","0",3.13,"orange","","","2016_Nov_17_1325"
13,4,1,2,"Y","4",6.412,"banana","","","2016_Nov_17_1325"
13,4,1,3,"B","6",5.396,"","apple","","2016_Nov_17_1325"
13,4,1,4,"X","8",4.709,"","strawberry","","2016_Nov_17_1325"
13,4,1,5,"Y","3",5.302,"","banana","","2016_Nov_17_1325"
13,4,1,6,"C","1",2.662,"","orange","","2016_Nov_17_1325"
13,4,1,7,"A","8",3.273,"","pear","","2016_Nov_17_1325"
13,4,1,8,"A","8",3.132,"pear","","","2016_Nov_17_1325"
13,4,1,9,"X","7",6.724,"strawberry","","","2016_Nov_17_1325"
13,4,1,10,"B","6",2.536,"apple","","","2016_Nov_17_1325"
13,4,2,11,"A","8",3.037,"pear","","","2016_Nov_17_1325"
13,4,2,12,"B","6",2.536,"","apple","","2016_Nov_17_1325"
13,4,2,13,"C","1",1.63,"","orange","","2016_Nov_17_1325"
13,4,2,14,"X","8",3.96,"strawberry","","","2016_Nov_17_1325"
13,4,2,15,"C","1",3.255,"orange","","","2016_Nov_17_1325"
13,4,2,16,"A","9",2.304,"","pear","","2016_Nov_17_1325"
13,4,2,17,"Y","6",3.851,"banana","","","2016_Nov_17_1325"
13,4,2,18,"Y","6",3.867,"","banana","","2016_Nov_17_1325"
13,4,2,19,"X","8",3.38,"","strawberry","","2016_Nov_17_1325"
13,4,2,20,"B","7",1.742,"apple","","","2016_Nov_17_1325"
13,4,3,21,"X","6",3.508,"","strawberry","","2016_Nov_17_1325"
13,4,3,22,"B","5",2.865,"apple","","","2016_Nov_17_1325"
13,4,3,23,"B","5",1.083,"","apple","","2016_Nov_17_1325"
13,4,3,24,"A","9",3.693,"","pear","","2016_Nov_17_1325"
13,4,3,25,"Y","5",2.648,"","banana","","2016_Nov_17_1325"
13,4,3,26,"C","1",1.599,"","orange","","2016_Nov_17_1325"
13,4,3,27,"C","1",1.364,"orange","","","2016_Nov_17_1325"
13,4,3,28,"A","8",4.068,"pear","","","2016_Nov_17_1325"
13,4,3,29,"X","7",2.57,"strawberry","","","2016_Nov_17_1325"
13,4,3,30,"Y","6",7.073,"banana","","","2016_Nov_17_1325"
13,4,4,31,"X","8",3.32,"strawberry","","","2016_Nov_17_1325"
13,4,4,32,"A","9",1.302,"pear","","","2016_Nov_17_1325"
13,4,4,33,"Y","5",2.365,"","banana","","2016_Nov_17_1325"
13,4,4,34,"C","0",2.693,"","orange","","2016_Nov_17_1325"
13,4,4,35,"A","9",2.177,"","pear","","2016_Nov_17_1325"
13,4,4,36,"Y","6",1.786,"banana","","","2016_Nov_17_1325"
13,4,4,37,"B","6",6.101,"","apple","","2016_Nov_17_1325"
13,4,4,38,"B","6",0.897,"apple","","","2016_Nov_17_1325"
13,4,4,39,"X","7",4.758,"","strawberry","","2016_Nov_17_1325"
13,4,4,40,"C","1",1.459,"orange","","","2016_Nov_17_1325"
13,4,5,41,"A","8",2.005,"","pear","","2016_Nov_17_1325"
13,4,5,42,"B","6",1.615,"apple","","","2016_Nov_17_1325"
13,4,5,43,"C","0",1.74,"orange","","","2016_Nov_17_1325"
13,4,5,44,"A","9",3.241,"pear","","","2016_Nov_17_1325"
13,4,5,45,"X","8",1.896,"","strawberry","","2016_Nov_17_1325"
13,4,5,46,"Y","5",1.944,"","banana","","2016_Nov_17_1325"
13,4,5,47,"X","7",1.755,"strawberry","","","2016_Nov_17_1325"
13,4,5,48,"Y","6",2.726,"banana","","","2016_Nov_17_1325"
13,4,5,49,"B","5",1.661,"","apple","","2016_Nov_17_1325"
13,4,5,50,"C","0",1.536,"","orange","","2016_Nov_17_1325"
13,4,6,51,"B","7",1.661,"","apple","","2016_Nov_17_1325"
13,4,6,52,"C","0",1.976,"","orange","","2016_Nov_17_1325"
13,4,6,53,"A","9",1.63,"pear","","","2016_Nov_17_1325"
13,4,6,54,"B","8",3.693,"apple","","","2016_Nov_17_1325"
13,4,6,55,"X","9",2.49,"strawberry","","","2016_Nov_17_1325"
13,4,6,56,"C","1",2.454,"orange","","","2016_Nov_17_1325"
13,4,6,57,"Y","6",3.021,"banana","","","2016_Nov_17_1325"
13,4,6,58,"Y","6",0.912,"","banana","","2016_Nov_17_1325"
13,4,6,59,"X","8",1.302,"","strawberry","","2016_Nov_17_1325"
13,4,6,60,"A","9",1.148,"","pear","","2016_Nov_17_1325"
14,2,1,1,"A","10",8.118,"pear","","","2016_Nov_17_1227"
14,2,1,2,"B","10",3.991,"apple","","","2016_Nov_17_1227"
14,2,1,3,"X","1",3.786,"","orange","","2016_Nov_17_1227"
14,2,1,4,"B","10",1.802,"","apple","","2016_Nov_17_1227"
14,2,1,5,"Y","1",2.195,"banana","","","2016_Nov_17_1227"
14,2,1,6,"C","1",1.552,"strawberry","","","2016_Nov_17_1227"
14,2,1,7,"A","10",1.677,"","pear","","2016_Nov_17_1227"
14,2,1,8,"Y","1",1.474,"","banana","","2016_Nov_17_1227"
14,2,1,9,"C","1",1.786,"","strawberry","","2016_Nov_17_1227"
14,2,1,10,"X","1",0.987,"orange","","","2016_Nov_17_1227"
14,2,2,11,"Y","1",1.755,"banana","","","2016_Nov_17_1227"
14,2,2,12,"A","10",1.693,"pear","","","2016_Nov_17_1227"
14,2,2,13,"X","1",1.302,"orange","","","2016_Nov_17_1227"
14,2,2,14,"X","1",1.054,"","orange","","2016_Nov_17_1227"
14,2,2,15,"B","10",2.007,"apple","","","2016_Nov_17_1227"
14,2,2,16,"B","10",0.446,"","apple","","2016_Nov_17_1227"
14,2,2,17,"C","1",0.926,"strawberry","","","2016_Nov_17_1227"
14,2,2,18,"A","10",0.896,"","pear","","2016_Nov_17_1227"
14,2,2,19,"C","1",1.005,"","strawberry","","2016_Nov_17_1227"
14,2,2,20,"Y","2",1.02,"","banana","","2016_Nov_17_1227"
14,2,3,21,"A","10",1.429,"pear","","","2016_Nov_17_1227"
14,2,3,22,"B","10",1.911,"","apple","","2016_Nov_17_1227"
14,2,3,23,"A","10",1.599,"","pear","","2016_Nov_17_1227"
14,2,3,24,"X","0",0.943,"","orange","","2016_Nov_17_1227"
14,2,3,25,"B","10",0.693,"apple","","","2016_Nov_17_1227"
14,2,3,26,"C","0",1.239,"strawberry","","","2016_Nov_17_1227"
14,2,3,27,"C","0",0.864,"","strawberry","","2016_Nov_17_1227"
14,2,3,28,"Y","0",0.427,"","banana","","2016_Nov_17_1227"
14,2,3,29,"X","0",0.507,"orange","","","2016_Nov_17_1227"
14,2,3,30,"Y","0",0.489,"banana","","","2016_Nov_17_1227"
14,2,4,31,"C","0",0.552,"strawberry","","","2016_Nov_17_1227"
14,2,4,32,"Y","0",0.489,"","banana","","2016_Nov_17_1227"
14,2,4,33,"C","0",0.442,"","strawberry","","2016_Nov_17_1227"
14,2,4,34,"B","10",0.88,"","apple","","2016_Nov_17_1227"
14,2,4,35,"B","10",0.614,"apple","","","2016_Nov_17_1227"
14,2,4,36,"Y","0",1.224,"banana","","","2016_Nov_17_1227"
14,2,4,37,"X","0",0.632,"orange","","","2016_Nov_17_1227"
14,2,4,38,"A","10",1.318,"","pear","","2016_Nov_17_1227"
14,2,4,39,"A","10",0.663,"pear","","","2016_Nov_17_1227"
14,2,4,40,"X","0",1.071,"","orange","","2016_Nov_17_1227"
14,2,5,41,"Y","0",1.161,"banana","","","2016_Nov_17_1227"
14,2,5,42,"B","10",1.101,"apple","","","2016_Nov_17_1227"
14,2,5,43,"C","0",0.927,"","strawberry","","2016_Nov_17_1227"
14,2,5,44,"A","10",0.852,"","pear","","2016_Nov_17_1227"
14,2,5,45,"X","0",0.88,"","orange","","2016_Nov_17_1227"
14,2,5,46,"C","0",1.606,"strawberry","","","2016_Nov_17_1227"
14,2,5,47,"B","10",1.081,"","apple","","2016_Nov_17_1227"
14,2,5,48,"X","0",1.193,"orange","","","2016_Nov_17_1227"
14,2,5,49,"Y","0",1.491,"","banana","","2016_Nov_17_1227"
14,2,5,50,"A","10",1.052,"pear","","","2016_Nov_17_1227"
14,2,6,51,"A","10",0.601,"pear","","","2016_Nov_17_1227"
14,2,6,52,"A","10",1.176,"","pear","","2016_Nov_17_1227"
14,2,6,53,"B","10",1.818,"","apple","","2016_Nov_17_1227"
14,2,6,54,"Y","0",4.246,"banana","","","2016_Nov_17_1227"
14,2,6,55,"X","0",1.007,"","orange","","2016_Nov_17_1227"
14,2,6,56,"B","10",3.02,"apple","","","2016_Nov_17_1227"
14,2,6,57,"X","0",1.005,"orange","","","2016_Nov_17_1227"
14,2,6,58,"Y","1",1.427,"","banana","","2016_Nov_17_1227"
14,2,6,59,"C","1",0.724,"strawberry","","","2016_Nov_17_1227"
14,2,6,60,"C","1",1.085,"","strawberry","","2016_Nov_17_1227"
14,4,1,1,"Y","6",5.57,"","banana","","2016_Nov_17_1227"
14,4,1,2,"B","10",1.377,"apple","","","2016_Nov_17_1227"
14,4,1,3,"A","10",0.57,"","pear","","2016_Nov_17_1227"
14,4,1,4,"X","6",1.099,"orange","","","2016_Nov_17_1227"
14,4,1,5,"C","0",1.099,"","strawberry","","2016_Nov_17_1227"
14,4,1,6,"B","10",1.465,"","apple","","2016_Nov_17_1227"
14,4,1,7,"C","1",1.477,"strawberry","","","2016_Nov_17_1227"
14,4,1,8,"X","6",2.897,"","orange","","2016_Nov_17_1227"
14,4,1,9,"A","10",0.927,"pear","","","2016_Nov_17_1227"
14,4,1,10,"Y","7",0.894,"banana","","","2016_Nov_17_1227"
14,4,2,11,"Y","6",0.927,"banana","","","2016_Nov_17_1227"
14,4,2,12,"X","6",1.194,"orange","","","2016_Nov_17_1227"
14,4,2,13,"Y","6",0.552,"","banana","","2016_Nov_17_1227"
14,4,2,14,"B","10",1.286,"apple","","","2016_Nov_17_1227"
14,4,2,15,"A","10",0.85,"pear","","","2016_Nov_17_1227"
14,4,2,16,"A","10",0.432,"","pear","","2016_Nov_17_1227"
14,4,2,17,"C","0",2.224,"","strawberry","","2016_Nov_17_1227"
14,4,2,18,"X","7",2.07,"","orange","","2016_Nov_17_1227"
14,4,2,19,"B","10",1.161,"","apple","","2016_Nov_17_1227"
14,4,2,20,"C","0",1.319,"strawberry","","","2016_Nov_17_1227"
14,4,3,21,"A","10",0.881,"","pear","","2016_Nov_17_1227"
14,4,3,22,"C","0",0.929,"strawberry","","","2016_Nov_17_1227"
14,4,3,23,"X","6",1.679,"","orange","","2016_Nov_17_1227"
14,4,3,24,"Y","6",0.677,"","banana","","2016_Nov_17_1227"
14,4,3,25,"B","10",1.849,"apple","","","2016_Nov_17_1227"
14,4,3,26,"A","10",1.742,"pear","","","2016_Nov_17_1227"
14,4,3,27,"X","6",1.193,"orange","","","2016_Nov_17_1227"
14,4,3,28,"C","0",1.115,"","strawberry","","2016_Nov_17_1227"
14,4,3,29,"B","10",2.541,"","apple","","2016_Nov_17_1227"
14,4,3,30,"Y","6",2.318,"banana","","","2016_Nov_17_1227"
14,4,4,31,"A","10",2.101,"pear","","","2016_Nov_17_1227"
14,4,4,32,"Y","6",1.055,"","banana","","2016_Nov_17_1227"
14,4,4,33,"Y","6",1.382,"banana","","","2016_Nov_17_1227"
14,4,4,34,"B","10",1.708,"","apple","","2016_Nov_17_1227"
14,4,4,35,"A","10",0.755,"","pear","","2016_Nov_17_1227"
14,4,4,36,"B","10",0.833,"apple","","","2016_Nov_17_1227"
14,4,4,37,"C","0",0.974,"strawberry","","","2016_Nov_17_1227"
14,4,4,38,"C","0",0.943,"","strawberry","","2016_Nov_17_1227"
14,4,4,39,"X","6",1.21,"","orange","","2016_Nov_17_1227"
14,4,4,40,"X","6",0.865,"orange","","","2016_Nov_17_1227"
14,4,5,41,"Y","6",0.489,"banana","","","2016_Nov_17_1227"
14,4,5,42,"A","10",0.88,"pear","","","2016_Nov_17_1227"
14,4,5,43,"C","0",1.161,"strawberry","","","2016_Nov_17_1227"
14,4,5,44,"X","0",0.911,"","orange","","2016_Nov_17_1227"
14,4,5,45,"Y","6",1.427,"","banana","","2016_Nov_17_1227"
14,4,5,46,"B","10",1.222,"apple","","","2016_Nov_17_1227"
14,4,5,47,"X","6",0.52,"orange","","","2016_Nov_17_1227"
14,4,5,48,"A","10",0.432,"","pear","","2016_Nov_17_1227"
14,4,5,49,"C","0",1.255,"","strawberry","","2016_Nov_17_1227"
14,4,5,50,"B","10",2.255,"","apple","","2016_Nov_17_1227"
14,4,6,51,"X","6",2.036,"orange","","","2016_Nov_17_1227"
14,4,6,52,"C","9",1.364,"strawberry","","","2016_Nov_17_1227"
14,4,6,53,"X","6",2.039,"","orange","","2016_Nov_17_1227"
14,4,6,54,"A","10",1.741,"pear","","","2016_Nov_17_1227"
14,4,6,55,"B","10",1.099,"apple","","","2016_Nov_17_1227"
14,4,6,56,"B","10",0.421,"","apple","","2016_Nov_17_1227"
14,4,6,57,"Y","6",0.881,"","banana","","2016_Nov_17_1227"
14,4,6,58,"Y","6",1.349,"banana","","","2016_Nov_17_1227"
14,4,6,59,"C","6",1.007,"","strawberry","","2016_Nov_17_1227"
14,4,6,60,"A","10",2.475,"","pear","","2016_Nov_17_1227"
15,2,1,1,"C","0",17.459,"","orange","","2016_Nov_17_1448"
15,2,1,2,"X","5",9.115,"","apple","","2016_Nov_17_1448"
15,2,1,3,"C","0",3.021,"orange","","","2016_Nov_17_1448"
15,2,1,4,"X","5",6.851,"apple","","","2016_Nov_17_1448"
15,2,1,5,"Y","0",3.755,"strawberry","","","2016_Nov_17_1448"
15,2,1,6,"B","10",3.802,"","banana","","2016_Nov_17_1448"
15,2,1,7,"A","10",0.927,"","pear","","2016_Nov_17_1448"
15,2,1,8,"B","10",1.411,"banana","","","2016_Nov_17_1448"
15,2,1,9,"A","10",1.302,"pear","","","2016_Nov_17_1448"
15,2,1,10,"Y","0",3.13,"","strawberry","","2016_Nov_17_1448"
15,2,2,11,"C","0",1.679,"orange","","","2016_Nov_17_1448"
15,2,2,12,"A","10",2.681,"pear","","","2016_Nov_17_1448"
15,2,2,13,"A","10",1.177,"","pear","","2016_Nov_17_1448"
15,2,2,14,"C","0",2.116,"","orange","","2016_Nov_17_1448"
15,2,2,15,"X","5",2.787,"apple","","","2016_Nov_17_1448"
15,2,2,16,"B","10",2.583,"banana","","","2016_Nov_17_1448"
15,2,2,17,"Y","0",2.224,"strawberry","","","2016_Nov_17_1448"
15,2,2,18,"Y","0",2.036,"","strawberry","","2016_Nov_17_1448"
15,2,2,19,"B","10",1.755,"","banana","","2016_Nov_17_1448"
15,2,2,20,"X","5",1.865,"","apple","","2016_Nov_17_1448"
15,2,3,21,"Y","0",1.427,"","strawberry","","2016_Nov_17_1448"
15,2,3,22,"C","0",1.146,"orange","","","2016_Nov_17_1448"
15,2,3,23,"X","5",2.036,"","apple","","2016_Nov_17_1448"
15,2,3,24,"A","10",1.896,"","pear","","2016_Nov_17_1448"
15,2,3,25,"A","10",2.179,"pear","","","2016_Nov_17_1448"
15,2,3,26,"C","0",1.882,"","orange","","2016_Nov_17_1448"
15,2,3,27,"B","10",8.708,"banana","","","2016_Nov_17_1448"
15,2,3,28,"X","5",2.068,"apple","","","2016_Nov_17_1448"
15,2,3,29,"B","10",2.272,"","banana","","2016_Nov_17_1448"
15,2,3,30,"Y","0",2.021,"strawberry","","","2016_Nov_17_1448"
15,2,4,31,"Y","0",0.864,"","strawberry","","2016_Nov_17_1448"
15,2,4,32,"Y","0",0.852,"strawberry","","","2016_Nov_17_1448"
15,2,4,33,"X","5",2.335,"","apple","","2016_Nov_17_1448"
15,2,4,34,"X","5",0.882,"apple","","","2016_Nov_17_1448"
15,2,4,35,"B","10",2.521,"banana","","","2016_Nov_17_1448"
15,2,4,36,"A","10",0.802,"pear","","","2016_Nov_17_1448"
15,2,4,37,"C","0",1.552,"orange","","","2016_Nov_17_1448"
15,2,4,38,"A","10",4.005,"","pear","","2016_Nov_17_1448"
15,2,4,39,"B","10",1.052,"","banana","","2016_Nov_17_1448"
15,2,4,40,"C","0",2.099,"","orange","","2016_Nov_17_1448"
15,2,5,41,"Y","0",0.648,"","strawberry","","2016_Nov_17_1448"
15,2,5,42,"B","10",2.023,"","banana","","2016_Nov_17_1448"
15,2,5,43,"X","5",1.505,"apple","","","2016_Nov_17_1448"
15,2,5,44,"C","0",2.521,"","orange","","2016_Nov_17_1448"
15,2,5,45,"Y","0",0.584,"strawberry","","","2016_Nov_17_1448"
15,2,5,46,"X","5",1.474,"","apple","","2016_Nov_17_1448"
15,2,5,47,"B","10",1.302,"banana","","","2016_Nov_17_1448"
15,2,5,48,"A","10",0.677,"","pear","","2016_Nov_17_1448"
15,2,5,49,"A","10",0.489,"pear","","","2016_Nov_17_1448"
15,2,5,50,"C","0",1.536,"orange","","","2016_Nov_17_1448"
15,2,6,51,"C","0",0.474,"","orange","","2016_Nov_17_1448"
15,2,6,52,"C","0",0.787,"orange","","","2016_Nov_17_1448"
15,2,6,53,"X","5",1.146,"apple","","","2016_Nov_17_1448"
