"partic","stage","block","trial","stim","resp","rt","fruit1","fruit2","outcome","date"
1,3,1,1,"Z","10",16.209,"apple","","","2017_Sep_27_0935"
1,3,1,2,"WC","7",3.777,"banana","kiwi","","2017_Sep_27_0935"
1,3,1,3,"XF","5",2.943,"orange","plum","","2017_Sep_27_0935"
1,3,1,4,"F","1",1.638,"plum","","","2017_Sep_27_0935"
1,3,1,5,"Y","1",0.854,"pear","","","2017_Sep_27_0935"
1,3,1,6,"B","8",2.903,"mango","","","2017_Sep_27_0935"
1,3,1,7,"W","8",2.704,"banana","","","2017_Sep_27_0935"
1,3,1,8,"C","2",1.538,"kiwi","","","2017_Sep_27_0935"
1,3,1,9,"D","10",1.236,"strawberry","","","2017_Sep_27_0935"
1,3,1,10,"A","10",0.703,"cherry","","","2017_Sep_27_0935"
1,3,1,11,"E","8",2.043,"peach","","","2017_Sep_27_0935"
1,3,1,12,"X","8",1.353,"orange","","","2017_Sep_27_0935"
1,3,2,13,"WC","2",3.137,"banana","kiwi","","2017_Sep_27_0935"
1,3,2,14,"X","9",2.337,"orange","","","2017_Sep_27_0935"
1,3,2,15,"D","10",1.538,"strawberry","","","2017_Sep_27_0935"
1,3,2,16,"F","1",1.71,"plum","","","2017_Sep_27_0935"
1,3,2,17,"W","10",1.304,"banana","","","2017_Sep_27_0935"
1,3,2,18,"Z","10",3.853,"apple","","","2017_Sep_27_0935"
1,3,2,19,"Y","0",1.343,"pear","","","2017_Sep_27_0935"
1,3,2,20,"C","0",1.338,"kiwi","","","2017_Sep_27_0935"
1,3,2,21,"XF","1",1.91,"orange","plum","","2017_Sep_27_0935"
1,3,2,22,"A","10",1.337,"cherry","","","2017_Sep_27_0935"
1,3,2,23,"B","5",2.093,"mango","","","2017_Sep_27_0935"
1,3,2,24,"E","8",1.971,"peach","","","2017_Sep_27_0935"
2,3,1,1,"B","8",11.337,"kiwi","","","2017_Sep_27_0954"
2,3,1,2,"XF","7",3.804,"mango","plum","","2017_Sep_27_0954"
2,3,1,3,"W","9",2.538,"orange","","","2017_Sep_27_0954"
2,3,1,4,"E","9",2.203,"pear","","","2017_Sep_27_0954"
2,3,1,5,"WC","9",1.838,"orange","apple","","2017_Sep_27_0954"
2,3,1,6,"C","9",1.143,"apple","","","2017_Sep_27_0954"
2,3,1,7,"D","10",5.103,"strawberry","","","2017_Sep_27_0954"
2,3,1,8,"Z","3",3.055,"cherry","","","2017_Sep_27_0954"
2,3,1,9,"X","9",1.527,"mango","","","2017_Sep_27_0954"
2,3,1,10,"Y","3",1.503,"peach","","","2017_Sep_27_0954"
2,3,1,11,"F","6",1.303,"plum","","","2017_Sep_27_0954"
2,3,1,12,"A","10",1.436,"banana","","","2017_Sep_27_0954"
2,3,2,13,"C","2",1.66,"apple","","","2017_Sep_27_0954"
2,3,2,14,"W","10",1.243,"orange","","","2017_Sep_27_0954"
2,3,2,15,"Y","8",2.31,"peach","","","2017_Sep_27_0954"
2,3,2,16,"A","10",1.137,"banana","","","2017_Sep_27_0954"
2,3,2,17,"F","7",1.876,"plum","","","2017_Sep_27_0954"
2,3,2,18,"B","9",1.477,"kiwi","","","2017_Sep_27_0954"
2,3,2,19,"XF","10",1.57,"mango","plum","","2017_Sep_27_0954"
2,3,2,20,"WC","10",1.203,"orange","apple","","2017_Sep_27_0954"
2,3,2,21,"X","9",1.272,"mango","","","2017_Sep_27_0954"
2,3,2,22,"Z","5",1.637,"cherry","","","2017_Sep_27_0954"
2,3,2,23,"D","9",1.538,"strawberry","","","2017_Sep_27_0954"
2,3,2,24,"E","9",2.67,"pear","","","2017_Sep_27_0954"
3,3,1,1,"XF","7",11.303,"plum","peach","","2017_Sep_27_1108"
3,3,1,2,"Z","0",2.936,"strawberry","","","2017_Sep_27_1108"
3,3,1,3,"Y","0",2.737,"kiwi","","","2017_Sep_27_1108"
3,3,1,4,"F","1",1.453,"peach","","","2017_Sep_27_1108"
3,3,1,5,"X","6",1.986,"plum","","","2017_Sep_27_1108"
3,3,1,6,"W","7",1.47,"mango","","","2017_Sep_27_1108"
3,3,1,7,"E","8",1.153,"banana","","","2017_Sep_27_1108"
3,3,1,8,"C","3",1.253,"pear","","","2017_Sep_27_1108"
3,3,1,9,"B","7",4.437,"orange","","","2017_Sep_27_1108"
3,3,1,10,"WC","5",3.137,"mango","pear","","2017_Sep_27_1108"
3,3,1,11,"D","10",1.72,"cherry","","","2017_Sep_27_1108"
3,3,1,12,"A","10",2.253,"apple","","","2017_Sep_27_1108"
3,3,2,13,"C","2",3.603,"pear","","","2017_Sep_27_1108"
3,3,2,14,"XF","6",3.653,"plum","peach","","2017_Sep_27_1108"
3,3,2,15,"A","10",2.653,"apple","","","2017_Sep_27_1108"
3,3,2,16,"F","3",1.42,"peach","","","2017_Sep_27_1108"
3,3,2,17,"W","4",2.486,"mango","","","2017_Sep_27_1108"
3,3,2,18,"X","8",2.636,"plum","","","2017_Sep_27_1108"
3,3,2,19,"E","9",0.986,"banana","","","2017_Sep_27_1108"
3,3,2,20,"WC","1",2.27,"mango","pear","","2017_Sep_27_1108"
3,3,2,21,"Y","1",1.37,"kiwi","","","2017_Sep_27_1108"
3,3,2,22,"B","8",1.687,"orange","","","2017_Sep_27_1108"
3,3,2,23,"D","10",1.036,"cherry","","","2017_Sep_27_1108"
3,3,2,24,"Z","0",1.336,"strawberry","","","2017_Sep_27_1108"
4,3,1,1,"C","4",4.753,"apple","","","2017_Sep_27_1406"
4,3,1,2,"F","4",4.459,"peach","","","2017_Sep_27_1406"
4,3,1,3,"E","8",2.405,"orange","","","2017_Sep_27_1406"
4,3,1,4,"XF","7",3.505,"plum","peach","","2017_Sep_27_1406"
4,3,1,5,"Y","7",2.01,"banana","","","2017_Sep_27_1406"
4,3,1,6,"D","10",1.543,"kiwi","","","2017_Sep_27_1406"
4,3,1,7,"X","10",0.87,"plum","","","2017_Sep_27_1406"
4,3,1,8,"W","7",2.005,"mango","","","2017_Sep_27_1406"
4,3,1,9,"B","8",2.093,"cherry","","","2017_Sep_27_1406"
4,3,1,10,"Z","3",5.843,"strawberry","","","2017_Sep_27_1406"
4,3,1,11,"A","7",1.776,"pear","","","2017_Sep_27_1406"
4,3,1,12,"WC","5",2.302,"mango","apple","","2017_Sep_27_1406"
4,3,2,13,"B","7",1.51,"cherry","","","2017_Sep_27_1406"
4,3,2,14,"WC","2",4.036,"mango","apple","","2017_Sep_27_1406"
4,3,2,15,"A","7",1.32,"pear","","","2017_Sep_27_1406"
4,3,2,16,"Y","5",3.087,"banana","","","2017_Sep_27_1406"
4,3,2,17,"E","7",1.27,"orange","","","2017_Sep_27_1406"
4,3,2,18,"XF","10",3.843,"plum","peach","","2017_Sep_27_1406"
4,3,2,19,"C","5",2.61,"apple","","","2017_Sep_27_1406"
4,3,2,20,"Z","5",2.138,"strawberry","","","2017_Sep_27_1406"
4,3,2,21,"W","0",2.643,"mango","","","2017_Sep_27_1406"
4,3,2,22,"D","6",1.606,"kiwi","","","2017_Sep_27_1406"
4,3,2,23,"F","7",2.07,"peach","","","2017_Sep_27_1406"
4,3,2,24,"X","10",2.604,"plum","","","2017_Sep_27_1406"
5,3,1,1,"D","10",5.902,"cherry","","","2017_Sep_28_0834"
5,3,1,2,"A","10",3.703,"kiwi","","","2017_Sep_28_0834"
5,3,1,3,"WC","2",9.336,"plum","orange","","2017_Sep_28_0834"
5,3,1,4,"C","3",6.403,"orange","","","2017_Sep_28_0834"
5,3,1,5,"X","6",3.07,"pear","","","2017_Sep_28_0834"
5,3,1,6,"W","0",3.437,"plum","","","2017_Sep_28_0834"
5,3,1,7,"B","8",2.31,"strawberry","","","2017_Sep_28_0834"
5,3,1,8,"Z","0",3.441,"apple","","","2017_Sep_28_0834"
5,3,1,9,"XF","3",6.843,"pear","mango","","2017_Sep_28_0834"
5,3,1,10,"E","7",4.737,"banana","","","2017_Sep_28_0834"
5,3,1,11,"F","1",3.259,"mango","","","2017_Sep_28_0834"
5,3,1,12,"Y","0",6.372,"peach","","","2017_Sep_28_0834"
5,3,2,13,"C","6",3.17,"orange","","","2017_Sep_28_0834"
5,3,2,14,"B","9",4.276,"strawberry","","","2017_Sep_28_0834"
5,3,2,15,"Y","2",4.37,"peach","","","2017_Sep_28_0834"
5,3,2,16,"WC","4",5.11,"plum","orange","","2017_Sep_28_0834"
5,3,2,17,"W","1",4.47,"plum","","","2017_Sep_28_0834"
5,3,2,18,"Z","0",4.772,"apple","","","2017_Sep_28_0834"
5,3,2,19,"F","0",3.739,"mango","","","2017_Sep_28_0834"
5,3,2,20,"XF","3",3.236,"pear","mango","","2017_Sep_28_0834"
5,3,2,21,"A","9",3.11,"kiwi","","","2017_Sep_28_0834"
5,3,2,22,"E","9",5.57,"banana","","","2017_Sep_28_0834"
5,3,2,23,"D","10",1.537,"cherry","","","2017_Sep_28_0834"
5,3,2,24,"X","7",7.692,"pear","","","2017_Sep_28_0834"
6,3,1,1,"Y","5",18.637,"mango","","","2017_Sep_28_0949"
6,3,1,2,"Z","0",2.387,"orange","","","2017_Sep_28_0949"
6,3,1,3,"B","5",4.087,"cherry","","","2017_Sep_28_0949"
6,3,1,4,"E","10",3.337,"kiwi","","","2017_Sep_28_0949"
6,3,1,5,"W","0",1.57,"banana","","","2017_Sep_28_0949"
6,3,1,6,"C","0",4.587,"peach","","","2017_Sep_28_0949"
6,3,1,7,"F","0",1.186,"pear","","","2017_Sep_28_0949"
6,3,1,8,"A","10",1.753,"apple","","","2017_Sep_28_0949"
6,3,1,9,"WC","0",4.903,"banana","peach","","2017_Sep_28_0949"
6,3,1,10,"D","10",2.203,"plum","","","2017_Sep_28_0949"
6,3,1,11,"XF","0",3.737,"strawberry","pear","","2017_Sep_28_0949"
6,3,1,12,"X","0",2.67,"strawberry","","","2017_Sep_28_0949"
6,3,2,13,"Y","5",3.537,"mango","","","2017_Sep_28_0949"
6,3,2,14,"W","0",1.703,"banana","","","2017_Sep_28_0949"
6,3,2,15,"X","0",2.137,"strawberry","","","2017_Sep_28_0949"
6,3,2,16,"Z","0",0.92,"orange","","","2017_Sep_28_0949"
6,3,2,17,"D","10",1.887,"plum","","","2017_Sep_28_0949"
6,3,2,18,"F","0",1.937,"pear","","","2017_Sep_28_0949"
6,3,2,19,"WC","0",6.753,"banana","peach","","2017_Sep_28_0949"
6,3,2,20,"XF","0",1.57,"strawberry","pear","","2017_Sep_28_0949"
6,3,2,21,"C","0",2.186,"peach","","","2017_Sep_28_0949"
6,3,2,22,"B","10",3.403,"cherry","","","2017_Sep_28_0949"
6,3,2,23,"E","10",1.086,"kiwi","","","2017_Sep_28_0949"
6,3,2,24,"A","10",0.753,"apple","","","2017_Sep_28_0949"
7,3,1,1,"E","10",15.436,"pear","","","2017_Sep_28_0851"
7,3,1,2,"B","9",7.753,"kiwi","","","2017_Sep_28_0851"
7,3,1,3,"W","9",1.037,"strawberry","","","2017_Sep_28_0851"
7,3,1,4,"Z","0",2.536,"plum","","","2017_Sep_28_0851"
7,3,1,5,"C","0",0.87,"orange","","","2017_Sep_28_0851"
7,3,1,6,"D","10",2.538,"peach","","","2017_Sep_28_0851"
7,3,1,7,"A","10",1.855,"cherry","","","2017_Sep_28_0851"
7,3,1,8,"XF","5",3.138,"banana","apple","","2017_Sep_28_0851"
7,3,1,9,"X","10",4.67,"banana","","","2017_Sep_28_0851"
7,3,1,10,"Y","0",1.486,"mango","","","2017_Sep_28_0851"
7,3,1,11,"WC","5",1.837,"strawberry","orange","","2017_Sep_28_0851"
7,3,1,12,"F","0",1.903,"apple","","","2017_Sep_28_0851"
7,3,2,13,"X","10",2.336,"banana","","","2017_Sep_28_0851"
7,3,2,14,"F","0",1.702,"apple","","","2017_Sep_28_0851"
7,3,2,15,"A","10",1.338,"cherry","","","2017_Sep_28_0851"
7,3,2,16,"Z","0",3.186,"plum","","","2017_Sep_28_0851"
7,3,2,17,"B","10",2.02,"kiwi","","","2017_Sep_28_0851"
7,3,2,18,"C","0",1.153,"orange","","","2017_Sep_28_0851"
7,3,2,19,"WC","5",3.738,"strawberry","orange","","2017_Sep_28_0851"
7,3,2,20,"W","10",1.703,"strawberry","","","2017_Sep_28_0851"
7,3,2,21,"D","10",0.837,"peach","","","2017_Sep_28_0851"
7,3,2,22,"Y","0",1.622,"mango","","","2017_Sep_28_0851"
7,3,2,23,"E","10",2.77,"pear","","","2017_Sep_28_0851"
7,3,2,24,"XF","5",1.44,"banana","apple","","2017_Sep_28_0851"
8,3,1,1,"Z","0",12.537,"orange","","","2017_Sep_28_1002"
8,3,1,2,"Y","0",3.353,"mango","","","2017_Sep_28_1002"
8,3,1,3,"W","0",3.52,"strawberry","","","2017_Sep_28_1002"
8,3,1,4,"WC","0",4.97,"strawberry","apple","","2017_Sep_28_1002"
8,3,1,5,"E","10",2.386,"banana","","","2017_Sep_28_1002"
8,3,1,6,"X","10",18.104,"pear","","","2017_Sep_28_1002"
8,3,1,7,"D","10",3.903,"peach","","","2017_Sep_28_1002"
8,3,1,8,"XF","0",6.77,"pear","cherry","","2017_Sep_28_1002"
8,3,1,9,"B","10",2.053,"kiwi","","","2017_Sep_28_1002"
8,3,1,10,"C","0",1.937,"apple","","","2017_Sep_28_1002"
8,3,1,11,"A","10",1.136,"plum","","","2017_Sep_28_1002"
8,3,1,12,"F","0",1.17,"cherry","","","2017_Sep_28_1002"
8,3,2,13,"Y","0",1.52,"mango","","","2017_Sep_28_1002"
8,3,2,14,"B","10",2.62,"kiwi","","","2017_Sep_28_1002"
8,3,2,15,"C","0",1.353,"apple","","","2017_Sep_28_1002"
8,3,2,16,"Z","0",2.22,"orange","","","2017_Sep_28_1002"
8,3,2,17,"D","10",2.153,"peach","","","2017_Sep_28_1002"
8,3,2,18,"W","0",2.47,"strawberry","","","2017_Sep_28_1002"
8,3,2,19,"A","10",2.903,"plum","","","2017_Sep_28_1002"
8,3,2,20,"XF","10",4.553,"pear","cherry","","2017_Sep_28_1002"
8,3,2,21,"WC","0",2.286,"strawberry","apple","","2017_Sep_28_1002"
8,3,2,22,"F","0",0.753,"cherry","","","2017_Sep_28_1002"
8,3,2,23,"E","10",2.086,"banana","","","2017_Sep_28_1002"
8,3,2,24,"X","10",1.703,"pear","","","2017_Sep_28_1002"
9,3,1,1,"F","0",17.303,"peach","","","2017_Sep_28_0907"
9,3,1,2,"D","10",4.259,"banana","","","2017_Sep_28_0907"
9,3,1,3,"B","8",11.836,"mango","","","2017_Sep_28_0907"
9,3,1,4,"C","0",3.787,"strawberry","","","2017_Sep_28_0907"
9,3,1,5,"E","9",6.771,"apple","","","2017_Sep_28_0907"
9,3,1,6,"Y","0",4.255,"kiwi","","","2017_Sep_28_0907"
9,3,1,7,"A","10",2.338,"cherry","","","2017_Sep_28_0907"
9,3,1,8,"X","7",5.905,"pear","","","2017_Sep_28_0907"
9,3,1,9,"W","6",8.769,"plum","","","2017_Sep_28_0907"
9,3,1,10,"WC","6",6.07,"plum","strawberry","","2017_Sep_28_0907"
9,3,1,11,"Z","0",2.47,"orange","","","2017_Sep_28_0907"
9,3,1,12,"XF","8",2.603,"pear","peach","","2017_Sep_28_0907"
9,3,2,13,"Z","0",5.739,"orange","","","2017_Sep_28_0907"
9,3,2,14,"A","10",2.238,"cherry","","","2017_Sep_28_0907"
9,3,2,15,"XF","7",3.506,"pear","peach","","2017_Sep_28_0907"
9,3,2,16,"B","8",6.271,"mango","","","2017_Sep_28_0907"
9,3,2,17,"E","8",2.625,"apple","","","2017_Sep_28_0907"
9,3,2,18,"C","0",2.271,"strawberry","","","2017_Sep_28_0907"
9,3,2,19,"Y","0",1.286,"kiwi","","","2017_Sep_28_0907"
9,3,2,20,"WC","8",8.435,"plum","strawberry","","2017_Sep_28_0907"
9,3,2,21,"F","0",6.003,"peach","","","2017_Sep_28_0907"
9,3,2,22,"D","10",1.27,"banana","","","2017_Sep_28_0907"
9,3,2,23,"W","8",4.204,"plum","","","2017_Sep_28_0907"
9,3,2,24,"X","7",2.443,"pear","","","2017_Sep_28_0907"
10,3,1,1,"X","2",12.32,"cherry","","","2017_Sep_28_1021"
10,3,1,2,"C","7",11.904,"apple","","","2017_Sep_28_1021"
10,3,1,3,"WC","6",8.67,"banana","apple","","2017_Sep_28_1021"
10,3,1,4,"XF","1",3.17,"cherry","plum","","2017_Sep_28_1021"
10,3,1,5,"Z","0",6.287,"strawberry","","","2017_Sep_28_1021"
10,3,1,6,"D","9",2.203,"pear","","","2017_Sep_28_1021"
10,3,1,7,"B","8",2.103,"mango","","","2017_Sep_28_1021"
10,3,1,8,"A","9",4.036,"peach","","","2017_Sep_28_1021"
10,3,1,9,"E","9",1.17,"orange","","","2017_Sep_28_1021"
10,3,1,10,"W","9",0.937,"banana","","","2017_Sep_28_1021"
10,3,1,11,"Y","1",1.719,"kiwi","","","2017_Sep_28_1021"
10,3,1,12,"F","1",1.036,"plum","","","2017_Sep_28_1021"
10,3,2,13,"W","8",3.27,"banana","","","2017_Sep_28_1021"
10,3,2,14,"C","4",4.387,"apple","","","2017_Sep_28_1021"
10,3,2,15,"D","8",3.07,"pear","","","2017_Sep_28_1021"
10,3,2,16,"A","8",1.937,"peach","","","2017_Sep_28_1021"
10,3,2,17,"Z","2",5.103,"strawberry","","","2017_Sep_28_1021"
10,3,2,18,"WC","8",10.12,"banana","apple","","2017_Sep_28_1021"
10,3,2,19,"Y","1",1.836,"kiwi","","","2017_Sep_28_1021"
10,3,2,20,"F","1",0.753,"plum","","","2017_Sep_28_1021"
10,3,2,21,"B","8",2.453,"mango","","","2017_Sep_28_1021"
10,3,2,22,"XF","1",2.17,"cherry","plum","","2017_Sep_28_1021"
10,3,2,23,"E","8",1.353,"orange","","","2017_Sep_28_1021"
10,3,2,24,"X","1",4.32,"cherry","","","2017_Sep_28_1021"
11,3,1,1,"E","10",5.659,"orange","","","2017_Sep_28_0913"
11,3,1,2,"W","0",3.803,"mango","","","2017_Sep_28_0913"
11,3,1,3,"Z","0",0.906,"banana","","","2017_Sep_28_0913"
11,3,1,4,"B","10",1.902,"strawberry","","","2017_Sep_28_0913"
11,3,1,5,"Y","0",2.553,"peach","","","2017_Sep_28_0913"
11,3,1,6,"A","10",1.31,"cherry","","","2017_Sep_28_0913"
11,3,1,7,"C","0",3.719,"apple","","","2017_Sep_28_0913"
11,3,1,8,"F","0",1.253,"plum","","","2017_Sep_28_0913"
11,3,1,9,"D","10",1.487,"kiwi","","","2017_Sep_28_0913"
11,3,1,10,"WC","0",3.442,"mango","apple","","2017_Sep_28_0913"
11,3,1,11,"XF","5",8.009,"pear","plum","","2017_Sep_28_0913"
11,3,1,12,"X","10",2.472,"pear","","","2017_Sep_28_0913"
11,3,2,13,"Y","0",2.236,"peach","","","2017_Sep_28_0913"
11,3,2,14,"D","10",1.371,"kiwi","","","2017_Sep_28_0913"
11,3,2,15,"C","0",2.06,"apple","","","2017_Sep_28_0913"
11,3,2,16,"F","0",1.01,"plum","","","2017_Sep_28_0913"
11,3,2,17,"X","10",1.256,"pear","","","2017_Sep_28_0913"
11,3,2,18,"A","10",0.838,"cherry","","","2017_Sep_28_0913"
11,3,2,19,"B","10",0.737,"strawberry","","","2017_Sep_28_0913"
11,3,2,20,"XF","5",2.608,"pear","plum","","2017_Sep_28_0913"
11,3,2,21,"Z","0",2.609,"banana","","","2017_Sep_28_0913"
11,3,2,22,"E","10",2.336,"orange","","","2017_Sep_28_0913"
11,3,2,23,"W","0",1.469,"mango","","","2017_Sep_28_0913"
11,3,2,24,"WC","0",1.373,"mango","apple","","2017_Sep_28_0913"
12,3,1,1,"F","0",7.341,"kiwi","","","2017_Sep_28_0956"
12,3,1,2,"WC","10",5.571,"pear","apple","","2017_Sep_28_0956"
12,3,1,3,"Z","0",2.443,"banana","","","2017_Sep_28_0956"
12,3,1,4,"Y","0",2.17,"mango","","","2017_Sep_28_0956"
12,3,1,5,"E","10",1.559,"strawberry","","","2017_Sep_28_0956"
12,3,1,6,"A","10",1.104,"peach","","","2017_Sep_28_0956"
12,3,1,7,"XF","5",3.071,"cherry","kiwi","","2017_Sep_28_0956"
12,3,1,8,"D","10",1.272,"orange","","","2017_Sep_28_0956"
12,3,1,9,"X","10",1.203,"cherry","","","2017_Sep_28_0956"
12,3,1,10,"B","10",3.47,"plum","","","2017_Sep_28_0956"
12,3,1,11,"C","0",3.938,"apple","","","2017_Sep_28_0956"
12,3,1,12,"W","10",1.805,"pear","","","2017_Sep_28_0956"
12,3,2,13,"E","10",3.537,"strawberry","","","2017_Sep_28_0956"
12,3,2,14,"D","10",1.203,"orange","","","2017_Sep_28_0956"
12,3,2,15,"Z","0",2.455,"banana","","","2017_Sep_28_0956"
12,3,2,16,"WC","5",2.937,"pear","apple","","2017_Sep_28_0956"
12,3,2,17,"X","10",1.77,"cherry","","","2017_Sep_28_0956"
12,3,2,18,"XF","5",1.803,"cherry","kiwi","","2017_Sep_28_0956"
12,3,2,19,"W","10",1.719,"pear","","","2017_Sep_28_0956"
12,3,2,20,"Y","0",1.703,"mango","","","2017_Sep_28_0956"
12,3,2,21,"A","10",1.67,"peach","","","2017_Sep_28_0956"
12,3,2,22,"F","0",1.587,"kiwi","","","2017_Sep_28_0956"
12,3,2,23,"B","10",1.47,"plum","","","2017_Sep_28_0956"
12,3,2,24,"C","0",4.303,"apple","","","2017_Sep_28_0956"
13,3,1,1,"B","10",5.636,"strawberry","","","2017_Sep_28_1034"
13,3,1,2,"X","5",3.669,"plum","","","2017_Sep_28_1034"
13,3,1,3,"A","10",1.793,"kiwi","","","2017_Sep_28_1034"
13,3,1,4,"WC","5",8.005,"mango","orange","","2017_Sep_28_1034"
13,3,1,5,"XF","5",1.606,"plum","cherry","","2017_Sep_28_1034"
13,3,1,6,"Z","0",2.205,"peach","","","2017_Sep_28_1034"
13,3,1,7,"C","5",2.655,"orange","","","2017_Sep_28_1034"
13,3,1,8,"E","10",1.51,"banana","","","2017_Sep_28_1034"
13,3,1,9,"Y","0",1.909,"apple","","","2017_Sep_28_1034"
13,3,1,10,"D","10",1.336,"pear","","","2017_Sep_28_1034"
13,3,1,11,"F","0",1.772,"cherry","","","2017_Sep_28_1034"
13,3,1,12,"W","0",0.97,"mango","","","2017_Sep_28_1034"
13,3,2,13,"Z","0",0.943,"peach","","","2017_Sep_28_1034"
13,3,2,14,"W","0",1.137,"mango","","","2017_Sep_28_1034"
13,3,2,15,"E","10",1.971,"banana","","","2017_Sep_28_1034"
13,3,2,16,"X","5",2.97,"plum","","","2017_Sep_28_1034"
13,3,2,17,"WC","5",2.837,"mango","orange","","2017_Sep_28_1034"
13,3,2,18,"C","5",1.471,"orange","","","2017_Sep_28_1034"
13,3,2,19,"F","0",1.637,"cherry","","","2017_Sep_28_1034"
13,3,2,20,"XF","5",1.603,"plum","cherry","","2017_Sep_28_1034"
13,3,2,21,"A","10",1.953,"kiwi","","","2017_Sep_28_1034"
13,3,2,22,"D","10",1.054,"pear","","","2017_Sep_28_1034"
13,3,2,23,"B","10",0.876,"strawberry","","","2017_Sep_28_1034"
13,3,2,24,"Y","0",1.76,"apple","","","2017_Sep_28_1034"
14,3,1,1,"B","10",12.459,"peach","","","2017_Sep_28_1137"
14,3,1,2,"E","10",4.47,"plum","","","2017_Sep_28_1137"
14,3,1,3,"WC","5",3.303,"banana","apple","","2017_Sep_28_1137"
14,3,1,4,"XF","10",4.036,"kiwi","pear","","2017_Sep_28_1137"
14,3,1,5,"X","10",1.788,"kiwi","","","2017_Sep_28_1137"
14,3,1,6,"F","10",5.038,"pear","","","2017_Sep_28_1137"
14,3,1,7,"D","10",1.103,"orange","","","2017_Sep_28_1137"
14,3,1,8,"Y","5",3.976,"cherry","","","2017_Sep_28_1137"
14,3,1,9,"Z","10",6.038,"strawberry","","","2017_Sep_28_1137"
14,3,1,10,"W","10",1.222,"banana","","","2017_Sep_28_1137"
14,3,1,11,"A","10",2.303,"mango","","","2017_Sep_28_1137"
14,3,1,12,"C","5",5.603,"apple","","","2017_Sep_28_1137"
14,3,2,13,"F","5",2.305,"pear","","","2017_Sep_28_1137"
14,3,2,14,"X","10",1.87,"kiwi","","","2017_Sep_28_1137"
14,3,2,15,"D","10",3.377,"orange","","","2017_Sep_28_1137"
14,3,2,16,"A","10",1.343,"mango","","","2017_Sep_28_1137"
14,3,2,17,"Y","5",2.737,"cherry","","","2017_Sep_28_1137"
14,3,2,18,"E","10",4.77,"plum","","","2017_Sep_28_1137"
14,3,2,19,"B","10",2.92,"peach","","","2017_Sep_28_1137"
14,3,2,20,"C","5",2.97,"apple","","","2017_Sep_28_1137"
14,3,2,21,"WC","5",5.272,"banana","apple","","2017_Sep_28_1137"
14,3,2,22,"W","10",1.57,"banana","","","2017_Sep_28_1137"
14,3,2,23,"XF","10",1.576,"kiwi","pear","","2017_Sep_28_1137"
14,3,2,24,"Z","10",2.236,"strawberry","","","2017_Sep_28_1137"
15,3,1,1,"Y","4",8.57,"mango","","","2017_Sep_28_1257"
15,3,1,2,"F","0",2.638,"apple","","","2017_Sep_28_1257"
15,3,1,3,"WC","10",4.47,"orange","cherry","","2017_Sep_28_1257"
15,3,1,4,"Z","2",4.205,"banana","","","2017_Sep_28_1257"
15,3,1,5,"XF","4",2.937,"peach","apple","","2017_Sep_28_1257"
15,3,1,6,"E","0",2.387,"strawberry","","","2017_Sep_28_1257"
15,3,1,7,"D","10",1.502,"plum","","","2017_Sep_28_1257"
15,3,1,8,"B","4",2.309,"kiwi","","","2017_Sep_28_1257"
15,3,1,9,"W","4",1.405,"orange","","","2017_Sep_28_1257"
15,3,1,10,"A","10",1.803,"pear","","","2017_Sep_28_1257"
15,3,1,11,"C","10",1.588,"cherry","","","2017_Sep_28_1257"
15,3,1,12,"X","5",1.425,"peach","","","2017_Sep_28_1257"
15,3,2,13,"X","5",0.737,"peach","","","2017_Sep_28_1257"
15,3,2,14,"C","10",2.137,"cherry","","","2017_Sep_28_1257"
15,3,2,15,"XF","4",1.769,"peach","apple","","2017_Sep_28_1257"
15,3,2,16,"Y","5",5.237,"mango","","","2017_Sep_28_1257"
15,3,2,17,"WC","9",1.271,"orange","cherry","","2017_Sep_28_1257"
15,3,2,18,"D","10",1.303,"plum","","","2017_Sep_28_1257"
15,3,2,19,"B","4",1.237,"kiwi","","","2017_Sep_28_1257"
15,3,2,20,"E","0",2.41,"strawberry","","","2017_Sep_28_1257"
15,3,2,21,"Z","2",1.838,"banana","","","2017_Sep_28_1257"
15,3,2,22,"F","0",1.276,"apple","","","2017_Sep_28_1257"
15,3,2,23,"A","10",2.003,"pear","","","2017_Sep_28_1257"
15,3,2,24,"W","3",1.488,"orange","","","2017_Sep_28_1257"
16,3,1,1,"B","10",3.519,"pear","","","2017_Sep_28_1426"
16,3,1,2,"Y","5",3.353,"peach","","","2017_Sep_28_1426"
16,3,1,3,"X","1",6.887,"strawberry","","","2017_Sep_28_1426"
16,3,1,4,"A","10",1.237,"mango","","","2017_Sep_28_1426"
16,3,1,5,"W","8",4.537,"orange","","","2017_Sep_28_1426"
16,3,1,6,"D","10",0.97,"kiwi","","","2017_Sep_28_1426"
16,3,1,7,"C","0",2.671,"cherry","","","2017_Sep_28_1426"
16,3,1,8,"E","10",1.536,"banana","","","2017_Sep_28_1426"
16,3,1,9,"F","1",1.503,"apple","","","2017_Sep_28_1426"
16,3,1,10,"Z","1",0.803,"plum","","","2017_Sep_28_1426"
16,3,1,11,"WC","2",3.203,"orange","cherry","","2017_Sep_28_1426"
16,3,1,12,"XF","0",1.62,"strawberry","apple","","2017_Sep_28_1426"
16,3,2,13,"WC","0",5.603,"orange","cherry","","2017_Sep_28_1426"
16,3,2,14,"XF","0",1.253,"strawberry","apple","","2017_Sep_28_1426"
16,3,2,15,"E","10",1.22,"banana","","","2017_Sep_28_1426"
16,3,2,16,"W","2",2.02,"orange","","","2017_Sep_28_1426"
16,3,2,17,"D","10",1.32,"kiwi","","","2017_Sep_28_1426"
16,3,2,18,"B","10",0.887,"pear","","","2017_Sep_28_1426"
16,3,2,19,"Y","0",2.436,"peach","","","2017_Sep_28_1426"
16,3,2,20,"X","2",1.853,"strawberry","","","2017_Sep_28_1426"
16,3,2,21,"C","2",1.187,"cherry","","","2017_Sep_28_1426"
16,3,2,22,"A","10",1.22,"mango","","","2017_Sep_28_1426"
16,3,2,23,"Z","0",2.77,"plum","","","2017_Sep_28_1426"
16,3,2,24,"F","0",0.886,"apple","","","2017_Sep_28_1426"
17,3,1,1,"WC","5",9.986,"plum","strawberry","","2017_Sep_28_1415"
17,3,1,2,"B","10",2.138,"banana","","","2017_Sep_28_1415"
17,3,1,3,"Z","0",2.737,"kiwi","","","2017_Sep_28_1415"
17,3,1,4,"XF","10",9.636,"peach","cherry","","2017_Sep_28_1415"
17,3,1,5,"X","10",1.072,"peach","","","2017_Sep_28_1415"
17,3,1,6,"D","10",2.103,"orange","","","2017_Sep_28_1415"
17,3,1,7,"W","5",3.555,"plum","","","2017_Sep_28_1415"
17,3,1,8,"E","10",2.953,"pear","","","2017_Sep_28_1415"
17,3,1,9,"F","0",2.355,"cherry","","","2017_Sep_28_1415"
17,3,1,10,"Y","0",1.303,"mango","","","2017_Sep_28_1415"
17,3,1,11,"C","0",1.17,"strawberry","","","2017_Sep_28_1415"
17,3,1,12,"A","10",1.737,"apple","","","2017_Sep_28_1415"
17,3,2,13,"W","5",2.92,"plum","","","2017_Sep_28_1415"
17,3,2,14,"B","10",2.276,"banana","","","2017_Sep_28_1415"
17,3,2,15,"F","0",2.339,"cherry","","","2017_Sep_28_1415"
17,3,2,16,"Y","0",1.138,"mango","","","2017_Sep_28_1415"
17,3,2,17,"WC","5",4.971,"plum","strawberry","","2017_Sep_28_1415"
17,3,2,18,"A","10",1.392,"apple","","","2017_Sep_28_1415"
17,3,2,19,"Z","0",2.459,"kiwi","","","2017_Sep_28_1415"
17,3,2,20,"C","0",1.639,"strawberry","","","2017_Sep_28_1415"
17,3,2,21,"X","10",2.458,"peach","","","2017_Sep_28_1415"
17,3,2,22,"XF","10",1.905,"peach","cherry","","2017_Sep_28_1415"
17,3,2,23,"E","10",1.104,"pear","","","2017_Sep_28_1415"
17,3,2,24,"D","10",1.637,"orange","","","2017_Sep_28_1415"
18,3,1,1,"C","0",8.203,"strawberry","","","2017_Sep_28_1529"
18,3,1,2,"D","10",3.653,"apple","","","2017_Sep_28_1529"
18,3,1,3,"Z","0",4.686,"peach","","","2017_Sep_28_1529"
18,3,1,4,"XF","5",7.92,"pear","mango","","2017_Sep_28_1529"
18,3,1,5,"A","10",2.303,"plum","","","2017_Sep_28_1529"
18,3,1,6,"E","10",2.253,"banana","","","2017_Sep_28_1529"
18,3,1,7,"B","10",0.92,"orange","","","2017_Sep_28_1529"
18,3,1,8,"WC","5",2.853,"kiwi","strawberry","","2017_Sep_28_1529"
18,3,1,9,"Y","0",2.22,"cherry","","","2017_Sep_28_1529"
18,3,1,10,"W","10",1.503,"kiwi","","","2017_Sep_28_1529"
18,3,1,11,"X","10",0.855,"pear","","","2017_Sep_28_1529"
18,3,1,12,"F","0",1.753,"mango","","","2017_Sep_28_1529"
18,3,2,13,"Y","0",3.553,"cherry","","","2017_Sep_28_1529"
18,3,2,14,"D","10",1.27,"apple","","","2017_Sep_28_1529"
18,3,2,15,"W","10",2.153,"kiwi","","","2017_Sep_28_1529"
18,3,2,16,"A","10",0.686,"plum","","","2017_Sep_28_1529"
18,3,2,17,"B","10",0.587,"orange","","","2017_Sep_28_1529"
18,3,2,18,"C","0",2.053,"strawberry","","","2017_Sep_28_1529"
18,3,2,19,"F","0",1.77,"mango","","","2017_Sep_28_1529"
18,3,2,20,"XF","5",1.686,"pear","mango","","2017_Sep_28_1529"
18,3,2,21,"WC","5",1.586,"kiwi","strawberry","","2017_Sep_28_1529"
18,3,2,22,"E","10",1.47,"banana","","","2017_Sep_28_1529"
18,3,2,23,"Z","0",1.77,"peach","","","2017_Sep_28_1529"
18,3,2,24,"X","10",2.086,"pear","","","2017_Sep_28_1529"
19,3,1,1,"F","0",8.369,"cherry","","","2017_Sep_29_0953"
19,3,1,2,"X","7",3.526,"strawberry","","","2017_Sep_29_0953"
19,3,1,3,"E","10",1.803,"peach","","","2017_Sep_29_0953"
19,3,1,4,"A","10",0.737,"pear","","","2017_Sep_29_0953"
19,3,1,5,"XF","5",3.67,"strawberry","cherry","","2017_Sep_29_0953"
19,3,1,6,"WC","0",3.67,"banana","kiwi","","2017_Sep_29_0953"
19,3,1,7,"Z","0",1.493,"apple","","","2017_Sep_29_0953"
19,3,1,8,"Y","0",0.826,"orange","","","2017_Sep_29_0953"
19,3,1,9,"D","10",1.559,"plum","","","2017_Sep_29_0953"
19,3,1,10,"B","10",0.876,"mango","","","2017_Sep_29_0953"
19,3,1,11,"C","0",2.009,"kiwi","","","2017_Sep_29_0953"
19,3,1,12,"W","0",0.726,"banana","","","2017_Sep_29_0953"
19,3,2,13,"X","10",4.637,"strawberry","","","2017_Sep_29_0953"
19,3,2,14,"B","10",0.626,"mango","","","2017_Sep_29_0953"
19,3,2,15,"WC","0",2.07,"banana","kiwi","","2017_Sep_29_0953"
19,3,2,16,"D","10",1.543,"plum","","","2017_Sep_29_0953"
19,3,2,17,"C","0",1.572,"kiwi","","","2017_Sep_29_0953"
19,3,2,18,"Y","0",0.637,"orange","","","2017_Sep_29_0953"
19,3,2,19,"Z","0",0.92,"apple","","","2017_Sep_29_0953"
19,3,2,20,"XF","5",2.037,"strawberry","cherry","","2017_Sep_29_0953"
19,3,2,21,"E","10",1.27,"peach","","","2017_Sep_29_0953"
19,3,2,22,"W","0",1.593,"banana","","","2017_Sep_29_0953"
19,3,2,23,"A","10",2.47,"pear","","","2017_Sep_29_0953"
19,3,2,24,"F","0",2.04,"cherry","","","2017_Sep_29_0953"
20,3,1,1,"Y","2",15.253,"apple","","","2017_Sep_29_1106"
20,3,1,2,"D","10",2.22,"strawberry","","","2017_Sep_29_1106"
20,3,1,3,"XF","7",3.237,"kiwi","pear","","2017_Sep_29_1106"
20,3,1,4,"C","9",3.92,"plum","","","2017_Sep_29_1106"
20,3,1,5,"WC","10",1.62,"cherry","plum","","2017_Sep_29_1106"
20,3,1,6,"X","10",2.403,"kiwi","","","2017_Sep_29_1106"
20,3,1,7,"F","0",3.353,"pear","","","2017_Sep_29_1106"
20,3,1,8,"Z","0",1.07,"orange","","","2017_Sep_29_1106"
20,3,1,9,"A","10",1.37,"peach","","","2017_Sep_29_1106"
20,3,1,10,"E","10",1.053,"banana","","","2017_Sep_29_1106"
20,3,1,11,"W","10",0.587,"cherry","","","2017_Sep_29_1106"
20,3,1,12,"B","10",0.803,"mango","","","2017_Sep_29_1106"
20,3,2,13,"E","10",0.803,"banana","","","2017_Sep_29_1106"
20,3,2,14,"X","10",0.936,"kiwi","","","2017_Sep_29_1106"
20,3,2,15,"W","10",0.803,"cherry","","","2017_Sep_29_1106"
20,3,2,16,"F","0",1.337,"pear","","","2017_Sep_29_1106"
20,3,2,17,"C","0",1.87,"plum","","","2017_Sep_29_1106"
20,3,2,18,"A","10",2.136,"peach","","","2017_Sep_29_1106"
20,3,2,19,"Y","3",4.203,"apple","","","2017_Sep_29_1106"
20,3,2,20,"B","10",1.253,"mango","","","2017_Sep_29_1106"
20,3,2,21,"WC","9",2.086,"cherry","plum","","2017_Sep_29_1106"
20,3,2,22,"Z","0",2.653,"orange","","","2017_Sep_29_1106"
20,3,2,23,"XF","10",2.386,"kiwi","pear","","2017_Sep_29_1106"
20,3,2,24,"D","10",4.353,"strawberry","","","2017_Sep_29_1106"
21,3,1,1,"A","10",3.37,"plum","","","2017_Sep_29_1015"
21,3,1,2,"E","10",0.809,"kiwi","","","2017_Sep_29_1015"
21,3,1,3,"F","0",4.437,"mango","","","2017_Sep_29_1015"
21,3,1,4,"W","5",3.153,"cherry","","","2017_Sep_29_1015"
21,3,1,5,"B","9",2.553,"orange","","","2017_Sep_29_1015"
21,3,1,6,"Z","0",2.572,"strawberry","","","2017_Sep_29_1015"
21,3,1,7,"C","0",1.242,"pear","","","2017_Sep_29_1015"
21,3,1,8,"D","10",1.321,"banana","","","2017_Sep_29_1015"
21,3,1,9,"XF","8",5.172,"peach","mango","","2017_Sep_29_1015"
21,3,1,10,"X","8",1.505,"peach","","","2017_Sep_29_1015"
21,3,1,11,"WC","2",3.103,"cherry","pear","","2017_Sep_29_1015"
21,3,1,12,"Y","0",2.459,"apple","","","2017_Sep_29_1015"
21,3,2,13,"WC","0",3.605,"cherry","pear","","2017_Sep_29_1015"
21,3,2,14,"XF","10",1.736,"peach","mango","","2017_Sep_29_1015"
21,3,2,15,"D","10",2.52,"banana","","","2017_Sep_29_1015"
21,3,2,16,"X","5",1.753,"peach","","","2017_Sep_29_1015"
21,3,2,17,"Z","0",1.77,"strawberry","","","2017_Sep_29_1015"
21,3,2,18,"F","0",1.171,"mango","","","2017_Sep_29_1015"
21,3,2,19,"Y","0",1.07,"apple","","","2017_Sep_29_1015"
21,3,2,20,"W","5",1.658,"cherry","","","2017_Sep_29_1015"
21,3,2,21,"B","5",1.003,"orange","","","2017_Sep_29_1015"
21,3,2,22,"E","10",1.787,"kiwi","","","2017_Sep_29_1015"
21,3,2,23,"C","2",1.576,"pear","","","2017_Sep_29_1015"
21,3,2,24,"A","10",1.437,"plum","","","2017_Sep_29_1015"
22,3,1,1,"B","3",6.57,"strawberry","","","2017_Sep_29_1128"
22,3,1,2,"W","6",2.77,"peach","","","2017_Sep_29_1128"
22,3,1,3,"C","7",2.203,"apple","","","2017_Sep_29_1128"
22,3,1,4,"A","8",4.303,"orange","","","2017_Sep_29_1128"
22,3,1,5,"X","6",1.686,"kiwi","","","2017_Sep_29_1128"
22,3,1,6,"XF","4",2.853,"kiwi","cherry","","2017_Sep_29_1128"
22,3,1,7,"D","10",1.453,"plum","","","2017_Sep_29_1128"
22,3,1,8,"E","10",1.287,"banana","","","2017_Sep_29_1128"
22,3,1,9,"Z","0",1.32,"pear","","","2017_Sep_29_1128"
22,3,1,10,"F","0",1.053,"cherry","","","2017_Sep_29_1128"
22,3,1,11,"Y","7",2.187,"mango","","","2017_Sep_29_1128"
22,3,1,12,"WC","8",2.27,"peach","apple","","2017_Sep_29_1128"
22,3,2,13,"X","6",1.57,"kiwi","","","2017_Sep_29_1128"
22,3,2,14,"A","6",1.32,"orange","","","2017_Sep_29_1128"
22,3,2,15,"D","10",1.253,"plum","","","2017_Sep_29_1128"
22,3,2,16,"WC","6",1.87,"peach","apple","","2017_Sep_29_1128"
22,3,2,17,"B","4",1.636,"strawberry","","","2017_Sep_29_1128"
22,3,2,18,"W","7",2.003,"peach","","","2017_Sep_29_1128"
22,3,2,19,"Z","0",2.92,"pear","","","2017_Sep_29_1128"
22,3,2,20,"E","7",2.036,"banana","","","2017_Sep_29_1128"
22,3,2,21,"F","0",1.42,"cherry","","","2017_Sep_29_1128"
22,3,2,22,"Y","7",1.237,"mango","","","2017_Sep_29_1128"
22,3,2,23,"C","6",2.253,"apple","","","2017_Sep_29_1128"
22,3,2,24,"XF","4",1.82,"kiwi","cherry","","2017_Sep_29_1128"
23,3,1,1,"Z","5",13.902,"apple","","","2017_Sep_29_1027"
23,3,1,2,"W","5",2.771,"peach","","","2017_Sep_29_1027"
23,3,1,3,"F","0",2.392,"strawberry","","","2017_Sep_29_1027"
23,3,1,4,"XF","10",8.703,"banana","strawberry","","2017_Sep_29_1027"
23,3,1,5,"D","10",1.003,"cherry","","","2017_Sep_29_1027"
23,3,1,6,"E","10",1.757,"plum","","","2017_Sep_29_1027"
23,3,1,7,"X","10",1.52,"banana","","","2017_Sep_29_1027"
23,3,1,8,"WC","5",4.503,"peach","kiwi","","2017_Sep_29_1027"
23,3,1,9,"B","10",3.087,"pear","","","2017_Sep_29_1027"
23,3,1,10,"A","10",0.87,"orange","","","2017_Sep_29_1027"
23,3,1,11,"C","0",1.509,"kiwi","","","2017_Sep_29_1027"
23,3,1,12,"Y","5",3.47,"mango","","","2017_Sep_29_1027"
23,3,2,13,"XF","10",2.005,"banana","strawberry","","2017_Sep_29_1027"
23,3,2,14,"A","10",1.836,"orange","","","2017_Sep_29_1027"
23,3,2,15,"X","10",0.876,"banana","","","2017_Sep_29_1027"
23,3,2,16,"W","5",1.687,"peach","","","2017_Sep_29_1027"
23,3,2,17,"B","10",2.186,"pear","","","2017_Sep_29_1027"
23,3,2,18,"E","10",0.909,"plum","","","2017_Sep_29_1027"
23,3,2,19,"F","0",1.603,"strawberry","","","2017_Sep_29_1027"
23,3,2,20,"WC","5",2.507,"peach","kiwi","","2017_Sep_29_1027"
23,3,2,21,"Z","5",2.603,"apple","","","2017_Sep_29_1027"
23,3,2,22,"D","10",2.222,"cherry","","","2017_Sep_29_1027"
23,3,2,23,"Y","5",2.342,"mango","","","2017_Sep_29_1027"
23,3,2,24,"C","0",1.172,"kiwi","","","2017_Sep_29_1027"
24,3,1,1,"B","7",6.986,"strawberry","","","2017_Sep_29_1141"
24,3,1,2,"F","2",5.503,"apple","","","2017_Sep_29_1141"
24,3,1,3,"A","10",1.27,"mango","","","2017_Sep_29_1141"
24,3,1,4,"Y","0",2.97,"banana","","","2017_Sep_29_1141"
24,3,1,5,"D","10",1.187,"peach","","","2017_Sep_29_1141"
24,3,1,6,"XF","0",4.453,"cherry","apple","","2017_Sep_29_1141"
24,3,1,7,"C","0",1.437,"plum","","","2017_Sep_29_1141"
24,3,1,8,"X","0",0.886,"cherry","","","2017_Sep_29_1141"
24,3,1,9,"W","3",3.17,"orange","","","2017_Sep_29_1141"
24,3,1,10,"WC","2",2.837,"orange","plum","","2017_Sep_29_1141"
24,3,1,11,"Z","3",3.437,"pear","","","2017_Sep_29_1141"
24,3,1,12,"E","4",3.27,"kiwi","","","2017_Sep_29_1141"
24,3,2,13,"WC","2",1.97,"orange","plum","","2017_Sep_29_1141"
24,3,2,14,"A","10",2.753,"mango","","","2017_Sep_29_1141"
24,3,2,15,"E","4",2.053,"kiwi","","","2017_Sep_29_1141"
24,3,2,16,"Y","2",4.654,"banana","","","2017_Sep_29_1141"
24,3,2,17,"F","0",1.503,"apple","","","2017_Sep_29_1141"
24,3,2,18,"X","1",2.053,"cherry","","","2017_Sep_29_1141"
24,3,2,19,"C","2",4.087,"plum","","","2017_Sep_29_1141"
24,3,2,20,"W","2",4.853,"orange","","","2017_Sep_29_1141"
24,3,2,21,"B","6",1.986,"strawberry","","","2017_Sep_29_1141"
24,3,2,22,"Z","3",1.786,"pear","","","2017_Sep_29_1141"
24,3,2,23,"XF","1",2.253,"cherry","apple","","2017_Sep_29_1141"
24,3,2,24,"D","10",1.787,"peach","","","2017_Sep_29_1141"
25,3,1,1,"WC","5",12.553,"banana","orange","","2017_Sep_29_1116"
25,3,1,2,"XF","10",5.81,"pear","kiwi","","2017_Sep_29_1116"
25,3,1,3,"A","10",1.293,"mango","","","2017_Sep_29_1116"
25,3,1,4,"F","0",1.789,"kiwi","","","2017_Sep_29_1116"
25,3,1,5,"E","10",2.02,"peach","","","2017_Sep_29_1116"
25,3,1,6,"B","10",0.77,"strawberry","","","2017_Sep_29_1116"
25,3,1,7,"W","5",2.042,"banana","","","2017_Sep_29_1116"
25,3,1,8,"X","5",2.892,"pear","","","2017_Sep_29_1116"
25,3,1,9,"C","5",0.937,"orange","","","2017_Sep_29_1116"
25,3,1,10,"D","10",2.143,"plum","","","2017_Sep_29_1116"
25,3,1,11,"Y","0",1.97,"cherry","","","2017_Sep_29_1116"
25,3,1,12,"Z","0",0.937,"apple","","","2017_Sep_29_1116"
25,3,2,13,"C","5",2.87,"orange","","","2017_Sep_29_1116"
25,3,2,14,"E","10",1.537,"peach","","","2017_Sep_29_1116"
25,3,2,15,"X","5",1.687,"pear","","","2017_Sep_29_1116"
25,3,2,16,"WC","10",2.037,"banana","orange","","2017_Sep_29_1116"
25,3,2,17,"B","10",0.937,"strawberry","","","2017_Sep_29_1116"
25,3,2,18,"XF","0",2.103,"pear","kiwi","","2017_Sep_29_1116"
25,3,2,19,"W","5",1.41,"banana","","","2017_Sep_29_1116"
25,3,2,20,"F","5",1.137,"kiwi","","","2017_Sep_29_1116"
25,3,2,21,"Y","5",0.77,"cherry","","","2017_Sep_29_1116"
25,3,2,22,"Z","0",1.637,"apple","","","2017_Sep_29_1116"
25,3,2,23,"D","10",1.337,"plum","","","2017_Sep_29_1116"
25,3,2,24,"A","10",0.603,"mango","","","2017_Sep_29_1116"
26,3,1,1,"Z","9",9.036,"apple","","","2017_Sep_29_1230"
26,3,1,2,"C","4",2.286,"pear","","","2017_Sep_29_1230"
26,3,1,3,"Y","1",1.32,"mango","","","2017_Sep_29_1230"
26,3,1,4,"A","10",1.086,"banana","","","2017_Sep_29_1230"
26,3,1,5,"X","4",2.72,"cherry","","","2017_Sep_29_1230"
26,3,1,6,"B","0",1.553,"strawberry","","","2017_Sep_29_1230"
26,3,1,7,"F","0",1.436,"orange","","","2017_Sep_29_1230"
26,3,1,8,"E","6",1.437,"peach","","","2017_Sep_29_1230"
26,3,1,9,"WC","1",2.97,"kiwi","pear","","2017_Sep_29_1230"
26,3,1,10,"XF","0",1.72,"cherry","orange","","2017_Sep_29_1230"
26,3,1,11,"W","1",1.536,"kiwi","","","2017_Sep_29_1230"
26,3,1,12,"D","10",1.286,"plum","","","2017_Sep_29_1230"
26,3,2,13,"F","0",1.653,"orange","","","2017_Sep_29_1230"
26,3,2,14,"Z","10",1.47,"apple","","","2017_Sep_29_1230"
26,3,2,15,"XF","0",1.953,"cherry","orange","","2017_Sep_29_1230"
26,3,2,16,"B","6",1.369,"strawberry","","","2017_Sep_29_1230"
26,3,2,17,"A","10",1.153,"banana","","","2017_Sep_29_1230"
26,3,2,18,"WC","3",1.803,"kiwi","pear","","2017_Sep_29_1230"
26,3,2,19,"E","3",1.07,"peach","","","2017_Sep_29_1230"
26,3,2,20,"X","5",0.953,"cherry","","","2017_Sep_29_1230"
26,3,2,21,"Y","7",1.153,"mango","","","2017_Sep_29_1230"
26,3,2,22,"D","10",0.887,"plum","","","2017_Sep_29_1230"
26,3,2,23,"W","5",1.52,"kiwi","","","2017_Sep_29_1230"
26,3,2,24,"C","1",1.503,"pear","","","2017_Sep_29_1230"
27,3,1,1,"XF","4",8.136,"strawberry","peach","","2017_Sep_29_1127"
27,3,1,2,"E","5",7.403,"orange","","","2017_Sep_29_1127"
27,3,1,3,"A","10",1.603,"plum","","","2017_Sep_29_1127"
27,3,1,4,"X","7",4.571,"strawberry","","","2017_Sep_29_1127"
27,3,1,5,"WC","2",2.971,"mango","cherry","","2017_Sep_29_1127"
27,3,1,6,"D","10",1.743,"banana","","","2017_Sep_29_1127"
27,3,1,7,"C","0",2.372,"cherry","","","2017_Sep_29_1127"
27,3,1,8,"W","5",3.303,"mango","","","2017_Sep_29_1127"
27,3,1,9,"F","5",2.193,"peach","","","2017_Sep_29_1127"
27,3,1,10,"Z","7",2.922,"apple","","","2017_Sep_29_1127"
27,3,1,11,"Y","2",1.753,"pear","","","2017_Sep_29_1127"
27,3,1,12,"B","7",3.803,"kiwi","","","2017_Sep_29_1127"
27,3,2,13,"X","7",2.672,"strawberry","","","2017_Sep_29_1127"
27,3,2,14,"A","10",1.505,"plum","","","2017_Sep_29_1127"
27,3,2,15,"Z","7",1.392,"apple","","","2017_Sep_29_1127"
27,3,2,16,"WC","3",5.037,"mango","cherry","","2017_Sep_29_1127"
27,3,2,17,"C","2",1.453,"cherry","","","2017_Sep_29_1127"
27,3,2,18,"D","10",1.57,"banana","","","2017_Sep_29_1127"
27,3,2,19,"B","10",1.343,"kiwi","","","2017_Sep_29_1127"
27,3,2,20,"W","6",2.154,"mango","","","2017_Sep_29_1127"
27,3,2,21,"E","7",1.526,"orange","","","2017_Sep_29_1127"
27,3,2,22,"Y","2",3.67,"pear","","","2017_Sep_29_1127"
27,3,2,23,"XF","4",3.238,"strawberry","peach","","2017_Sep_29_1127"
27,3,2,24,"F","5",2.153,"peach","","","2017_Sep_29_1127"
28,3,1,1,"E","0",7.286,"peach","","","2017_Sep_29_1406"
28,3,1,2,"XF","5",10.287,"mango","cherry","","2017_Sep_29_1406"
28,3,1,3,"C","0",4.82,"apple","","","2017_Sep_29_1406"
28,3,1,4,"W","10",4.07,"kiwi","","","2017_Sep_29_1406"
28,3,1,5,"B","7",2.053,"orange","","","2017_Sep_29_1406"
28,3,1,6,"Y","0",10.687,"plum","","","2017_Sep_29_1406"
28,3,1,7,"X","8",3.203,"mango","","","2017_Sep_29_1406"
28,3,1,8,"A","10",2.753,"pear","","","2017_Sep_29_1406"
28,3,1,9,"D","10",1.07,"banana","","","2017_Sep_29_1406"
28,3,1,10,"F","0",2.787,"cherry","","","2017_Sep_29_1406"
28,3,1,11,"Z","0",2.303,"strawberry","","","2017_Sep_29_1406"
28,3,1,12,"WC","5",2.636,"kiwi","apple","","2017_Sep_29_1406"
28,3,2,13,"D","10",1.52,"banana","","","2017_Sep_29_1406"
28,3,2,14,"X","3",3.403,"mango","","","2017_Sep_29_1406"
28,3,2,15,"W","6",3.803,"kiwi","","","2017_Sep_29_1406"
28,3,2,16,"E","7",2.053,"peach","","","2017_Sep_29_1406"
28,3,2,17,"Y","0",2.203,"plum","","","2017_Sep_29_1406"
28,3,2,18,"B","8",3.22,"orange","","","2017_Sep_29_1406"
28,3,2,19,"C","0",3.97,"apple","","","2017_Sep_29_1406"
28,3,2,20,"A","10",2.036,"pear","","","2017_Sep_29_1406"
28,3,2,21,"Z","0",5.47,"strawberry","","","2017_Sep_29_1406"
28,3,2,22,"F","0",1.453,"cherry","","","2017_Sep_29_1406"
28,3,2,23,"WC","5",4.72,"kiwi","apple","","2017_Sep_29_1406"
28,3,2,24,"XF","5",2.42,"mango","cherry","","2017_Sep_29_1406"
29,3,1,1,"W","5",10.288,"strawberry","","","2017_Sep_29_1253"
29,3,1,2,"A","10",2.92,"mango","","","2017_Sep_29_1253"
29,3,1,3,"C","0",4.005,"orange","","","2017_Sep_29_1253"
29,3,1,4,"X","10",3.003,"apple","","","2017_Sep_29_1253"
29,3,1,5,"D","10",3.022,"cherry","","","2017_Sep_29_1253"
29,3,1,6,"F","0",1.936,"pear","","","2017_Sep_29_1253"
29,3,1,7,"Y","0",3.138,"kiwi","","","2017_Sep_29_1253"
29,3,1,8,"E","10",4.403,"banana","","","2017_Sep_29_1253"
29,3,1,9,"Z","0",2.242,"peach","","","2017_Sep_29_1253"
29,3,1,10,"B","10",3.292,"plum","","","2017_Sep_29_1253"
29,3,1,11,"WC","2",7.17,"strawberry","orange","","2017_Sep_29_1253"
29,3,1,12,"XF","8",6.238,"apple","pear","","2017_Sep_29_1253"
29,3,2,13,"X","10",1.706,"apple","","","2017_Sep_29_1253"
29,3,2,14,"WC","0",6.838,"strawberry","orange","","2017_Sep_29_1253"
29,3,2,15,"XF","8",2.969,"apple","pear","","2017_Sep_29_1253"
29,3,2,16,"D","10",1.238,"cherry","","","2017_Sep_29_1253"
29,3,2,17,"C","0",1.47,"orange","","","2017_Sep_29_1253"
29,3,2,18,"F","0",1.81,"pear","","","2017_Sep_29_1253"
29,3,2,19,"A","10",2.97,"mango","","","2017_Sep_29_1253"
29,3,2,20,"W","5",3.341,"strawberry","","","2017_Sep_29_1253"
29,3,2,21,"Y","0",2.37,"kiwi","","","2017_Sep_29_1253"
29,3,2,22,"E","0",0.439,"banana","","","2017_Sep_29_1253"
29,3,2,23,"Z","4",6.778,"peach","","","2017_Sep_29_1253"
29,3,2,24,"B","10",7.62,"plum","","","2017_Sep_29_1253"
30,3,1,1,"X","10",6.253,"kiwi","","","2017_Sep_29_1422"
30,3,1,2,"W","0",3.837,"strawberry","","","2017_Sep_29_1422"
30,3,1,3,"D","10",1.387,"banana","","","2017_Sep_29_1422"
30,3,1,4,"Y","0",1.82,"plum","","","2017_Sep_29_1422"
30,3,1,5,"WC","0",2.52,"strawberry","pear","","2017_Sep_29_1422"
30,3,1,6,"Z","0",1.92,"mango","","","2017_Sep_29_1422"
30,3,1,7,"XF","7",5.287,"kiwi","apple","","2017_Sep_29_1422"
30,3,1,8,"A","10",1.47,"peach","","","2017_Sep_29_1422"
30,3,1,9,"F","0",1.97,"apple","","","2017_Sep_29_1422"
30,3,1,10,"B","10",1.803,"orange","","","2017_Sep_29_1422"
30,3,1,11,"E","10",1.186,"cherry","","","2017_Sep_29_1422"
30,3,1,12,"C","0",1.42,"pear","","","2017_Sep_29_1422"
30,3,2,13,"C","0",1.353,"pear","","","2017_Sep_29_1422"
30,3,2,14,"A","10",3.17,"peach","","","2017_Sep_29_1422"
30,3,2,15,"W","0",1.653,"strawberry","","","2017_Sep_29_1422"
30,3,2,16,"B","10",1.97,"orange","","","2017_Sep_29_1422"
30,3,2,17,"E","10",0.92,"cherry","","","2017_Sep_29_1422"
30,3,2,18,"WC","0",2.303,"strawberry","pear","","2017_Sep_29_1422"
30,3,2,19,"F","0",1.47,"apple","","","2017_Sep_29_1422"
30,3,2,20,"XF","8",2.587,"kiwi","apple","","2017_Sep_29_1422"
30,3,2,21,"Y","0",1.453,"plum","","","2017_Sep_29_1422"
30,3,2,22,"Z","0",1.32,"mango","","","2017_Sep_29_1422"
30,3,2,23,"X","10",1.636,"kiwi","","","2017_Sep_29_1422"
30,3,2,24,"D","10",1.053,"banana","","","2017_Sep_29_1422"
31,3,1,1,"Z","1",15.537,"banana","","","2017_Sep_29_1310"
31,3,1,2,"WC","7",3.703,"cherry","pear","","2017_Sep_29_1310"
31,3,1,3,"F","4",2.843,"strawberry","","","2017_Sep_29_1310"
31,3,1,4,"C","4",3.172,"pear","","","2017_Sep_29_1310"
31,3,1,5,"D","9",2.038,"orange","","","2017_Sep_29_1310"
31,3,1,6,"A","7",2.27,"mango","","","2017_Sep_29_1310"
31,3,1,7,"XF","4",2.553,"plum","strawberry","","2017_Sep_29_1310"
31,3,1,8,"B","4",1.903,"peach","","","2017_Sep_29_1310"
31,3,1,9,"X","5",2.742,"plum","","","2017_Sep_29_1310"
31,3,1,10,"Y","7",1.904,"kiwi","","","2017_Sep_29_1310"
31,3,1,11,"E","5",2.57,"apple","","","2017_Sep_29_1310"
31,3,1,12,"W","5",1.57,"cherry","","","2017_Sep_29_1310"
31,3,2,13,"D","8",1.737,"orange","","","2017_Sep_29_1310"
31,3,2,14,"WC","6",3.47,"cherry","pear","","2017_Sep_29_1310"
31,3,2,15,"E","5",2.953,"apple","","","2017_Sep_29_1310"
31,3,2,16,"F","5",1.526,"strawberry","","","2017_Sep_29_1310"
31,3,2,17,"Z","1",2.886,"banana","","","2017_Sep_29_1310"
31,3,2,18,"W","6",2.792,"cherry","","","2017_Sep_29_1310"
31,3,2,19,"Y","9",2.053,"kiwi","","","2017_Sep_29_1310"
31,3,2,20,"B","6",2.237,"peach","","","2017_Sep_29_1310"
31,3,2,21,"XF","5",2.137,"plum","strawberry","","2017_Sep_29_1310"
31,3,2,22,"A","5",1.47,"mango","","","2017_Sep_29_1310"
31,3,2,23,"C","5",1.105,"pear","","","2017_Sep_29_1310"
31,3,2,24,"X","5",2.455,"plum","","","2017_Sep_29_1310"
32,3,1,1,"F","2",4.836,"mango","","","2017_Sep_29_1446"
32,3,1,2,"X","8",2.136,"cherry","","","2017_Sep_29_1446"
32,3,1,3,"Y","8",1.07,"apple","","","2017_Sep_29_1446"
32,3,1,4,"W","6",1.72,"orange","","","2017_Sep_29_1446"
32,3,1,5,"C","1",2.503,"plum","","","2017_Sep_29_1446"
32,3,1,6,"WC","2",2.32,"orange","plum","","2017_Sep_29_1446"
32,3,1,7,"XF","5",3.253,"cherry","mango","","2017_Sep_29_1446"
32,3,1,8,"E","5",6.053,"peach","","","2017_Sep_29_1446"
32,3,1,9,"A","8",1.887,"banana","","","2017_Sep_29_1446"
32,3,1,10,"B","3",4.487,"strawberry","","","2017_Sep_29_1446"
32,3,1,11,"D","9",1.603,"pear","","","2017_Sep_29_1446"
32,3,1,12,"Z","5",1.703,"kiwi","","","2017_Sep_29_1446"
32,3,2,13,"A","9",1.57,"banana","","","2017_Sep_29_1446"
32,3,2,14,"Z","2",2.753,"kiwi","","","2017_Sep_29_1446"
32,3,2,15,"XF","4",2.303,"cherry","mango","","2017_Sep_29_1446"
32,3,2,16,"D","9",1.453,"pear","","","2017_Sep_29_1446"
32,3,2,17,"WC","2",3.036,"orange","plum","","2017_Sep_29_1446"
32,3,2,18,"C","1",1.537,"plum","","","2017_Sep_29_1446"
32,3,2,19,"X","6",2.037,"cherry","","","2017_Sep_29_1446"
32,3,2,20,"F","4",1.153,"mango","","","2017_Sep_29_1446"
32,3,2,21,"B","3",1.553,"strawberry","","","2017_Sep_29_1446"
32,3,2,22,"W","4",1.653,"orange","","","2017_Sep_29_1446"
32,3,2,23,"E","4",1.886,"peach","","","2017_Sep_29_1446"
32,3,2,24,"Y","7",1.586,"apple","","","2017_Sep_29_1446"
33,3,1,1,"E","10",9.62,"apple","","","2017_Sep_29_1333"
33,3,1,2,"WC","7",4.47,"strawberry","plum","","2017_Sep_29_1333"
33,3,1,3,"Y","0",2.77,"mango","","","2017_Sep_29_1333"
33,3,1,4,"F","0",3.376,"peach","","","2017_Sep_29_1333"
33,3,1,5,"W","10",2.137,"strawberry","","","2017_Sep_29_1333"
33,3,1,6,"C","0",2.037,"plum","","","2017_Sep_29_1333"
33,3,1,7,"X","10",3.07,"banana","","","2017_Sep_29_1333"
33,3,1,8,"Z","0",2.076,"cherry","","","2017_Sep_29_1333"
33,3,1,9,"XF","7",3.443,"banana","peach","","2017_Sep_29_1333"
33,3,1,10,"A","10",1.603,"orange","","","2017_Sep_29_1333"
33,3,1,11,"D","10",1.405,"kiwi","","","2017_Sep_29_1333"
33,3,1,12,"B","10",2.303,"pear","","","2017_Sep_29_1333"
33,3,2,13,"B","10",1.372,"pear","","","2017_Sep_29_1333"
33,3,2,14,"XF","7",3.503,"banana","peach","","2017_Sep_29_1333"
33,3,2,15,"WC","7",1.505,"strawberry","plum","","2017_Sep_29_1333"
33,3,2,16,"W","10",1.572,"strawberry","","","2017_Sep_29_1333"
33,3,2,17,"D","10",1.62,"kiwi","","","2017_Sep_29_1333"
33,3,2,18,"A","10",1.206,"orange","","","2017_Sep_29_1333"
33,3,2,19,"F","0",1.559,"peach","","","2017_Sep_29_1333"
33,3,2,20,"Y","0",0.803,"mango","","","2017_Sep_29_1333"
33,3,2,21,"C","0",1.737,"plum","","","2017_Sep_29_1333"
33,3,2,22,"Z","0",1.52,"cherry","","","2017_Sep_29_1333"
33,3,2,23,"X","10",2.338,"banana","","","2017_Sep_29_1333"
33,3,2,24,"E","10",1.638,"apple","","","2017_Sep_29_1333"
34,3,1,1,"WC","2",16.77,"cherry","banana","","2017_Oct_03_1003"
34,3,1,2,"A","10",3.103,"pear","","","2017_Oct_03_1003"
34,3,1,3,"Y","0",3.07,"peach","","","2017_Oct_03_1003"
34,3,1,4,"W","5",3.087,"cherry","","","2017_Oct_03_1003"
34,3,1,5,"C","0",2.087,"banana","","","2017_Oct_03_1003"
34,3,1,6,"X","10",2.737,"strawberry","","","2017_Oct_03_1003"
34,3,1,7,"XF","10",5.003,"strawberry","apple","","2017_Oct_03_1003"
34,3,1,8,"B","10",3.47,"orange","","","2017_Oct_03_1003"
34,3,1,9,"D","10",1.62,"plum","","","2017_Oct_03_1003"
34,3,1,10,"F","0",1.686,"apple","","","2017_Oct_03_1003"
34,3,1,11,"Z","0",1.37,"mango","","","2017_Oct_03_1003"
34,3,1,12,"E","10",1.603,"kiwi","","","2017_Oct_03_1003"
34,3,2,13,"Z","0",2.47,"mango","","","2017_Oct_03_1003"
34,3,2,14,"D","10",1.62,"plum","","","2017_Oct_03_1003"
34,3,2,15,"WC","2",4.253,"cherry","banana","","2017_Oct_03_1003"
34,3,2,16,"Y","0",2.037,"peach","","","2017_Oct_03_1003"
34,3,2,17,"A","10",1.637,"pear","","","2017_Oct_03_1003"
34,3,2,18,"B","10",1.786,"orange","","","2017_Oct_03_1003"
34,3,2,19,"C","0",1.703,"banana","","","2017_Oct_03_1003"
34,3,2,20,"X","10",1.853,"strawberry","","","2017_Oct_03_1003"
34,3,2,21,"F","0",1.686,"apple","","","2017_Oct_03_1003"
34,3,2,22,"W","5",5.47,"cherry","","","2017_Oct_03_1003"
34,3,2,23,"XF","10",1.953,"strawberry","apple","","2017_Oct_03_1003"
34,3,2,24,"E","10",1.286,"kiwi","","","2017_Oct_03_1003"
35,3,1,1,"B","3",6.121,"pear","","","2017_Oct_03_0851"
35,3,1,2,"XF","7",6.005,"kiwi","plum","","2017_Oct_03_0851"
35,3,1,3,"W","8",3.286,"orange","","","2017_Oct_03_0851"
35,3,1,4,"A","10",2.209,"cherry","","","2017_Oct_03_0851"
35,3,1,5,"Y","9",6.703,"banana","","","2017_Oct_03_0851"
35,3,1,6,"F","3",3.27,"plum","","","2017_Oct_03_0851"
35,3,1,7,"Z","6",2.156,"strawberry","","","2017_Oct_03_0851"
35,3,1,8,"WC","7",5.003,"orange","peach","","2017_Oct_03_0851"
35,3,1,9,"C","2",2.405,"peach","","","2017_Oct_03_0851"
35,3,1,10,"D","10",1.669,"apple","","","2017_Oct_03_0851"
35,3,1,11,"X","8",5.186,"kiwi","","","2017_Oct_03_0851"
35,3,1,12,"E","5",2.103,"mango","","","2017_Oct_03_0851"
35,3,2,13,"B","7",5.009,"pear","","","2017_Oct_03_0851"
35,3,2,14,"W","8",2.32,"orange","","","2017_Oct_03_0851"
35,3,2,15,"A","10",1.077,"cherry","","","2017_Oct_03_0851"
35,3,2,16,"Y","7",6.143,"banana","","","2017_Oct_03_0851"
35,3,2,17,"D","10",1.403,"apple","","","2017_Oct_03_0851"
35,3,2,18,"X","7",5.836,"kiwi","","","2017_Oct_03_0851"
35,3,2,19,"C","4",2.203,"peach","","","2017_Oct_03_0851"
35,3,2,20,"F","2",2.42,"plum","","","2017_Oct_03_0851"
35,3,2,21,"XF","6",5.003,"kiwi","plum","","2017_Oct_03_0851"
35,3,2,22,"E","4",1.638,"mango","","","2017_Oct_03_0851"
35,3,2,23,"WC","5",3.005,"orange","peach","","2017_Oct_03_0851"
35,3,2,24,"Z","7",4.637,"strawberry","","","2017_Oct_03_0851"
36,3,1,1,"Z","8",19.171,"orange","","","2017_Oct_03_1025"
36,3,1,2,"Y","8",15.421,"pear","","","2017_Oct_03_1025"
36,3,1,3,"D","10",2.07,"banana","","","2017_Oct_03_1025"
36,3,1,4,"X","10",2.92,"apple","","","2017_Oct_03_1025"
36,3,1,5,"A","10",1.187,"plum","","","2017_Oct_03_1025"
36,3,1,6,"WC","9",6.42,"peach","mango","","2017_Oct_03_1025"
36,3,1,7,"C","8",3.62,"mango","","","2017_Oct_03_1025"
36,3,1,8,"W","10",2.753,"peach","","","2017_Oct_03_1025"
36,3,1,9,"B","10",1.853,"strawberry","","","2017_Oct_03_1025"
36,3,1,10,"XF","9",4.92,"apple","kiwi","","2017_Oct_03_1025"
36,3,1,11,"E","10",1.386,"cherry","","","2017_Oct_03_1025"
36,3,1,12,"F","8",4.62,"kiwi","","","2017_Oct_03_1025"
36,3,2,13,"Y","8",1.253,"pear","","","2017_Oct_03_1025"
36,3,2,14,"WC","9",2.086,"peach","mango","","2017_Oct_03_1025"
36,3,2,15,"Z","8",7.487,"orange","","","2017_Oct_03_1025"
36,3,2,16,"C","8",2.353,"mango","","","2017_Oct_03_1025"
36,3,2,17,"D","10",1.036,"banana","","","2017_Oct_03_1025"
36,3,2,18,"A","10",0.703,"plum","","","2017_Oct_03_1025"
36,3,2,19,"X","10",0.82,"apple","","","2017_Oct_03_1025"
36,3,2,20,"E","10",0.653,"cherry","","","2017_Oct_03_1025"
36,3,2,21,"B","10",0.803,"strawberry","","","2017_Oct_03_1025"
36,3,2,22,"W","10",0.97,"peach","","","2017_Oct_03_1025"
36,3,2,23,"F","8",3.536,"kiwi","","","2017_Oct_03_1025"
36,3,2,24,"XF","9",4.52,"apple","kiwi","","2017_Oct_03_1025"
37,3,1,1,"WC","5",11.303,"banana","kiwi","","2017_Oct_03_0912"
37,3,1,2,"W","3",5.953,"banana","","","2017_Oct_03_0912"
37,3,1,3,"D","10",3.787,"peach","","","2017_Oct_03_0912"
37,3,1,4,"B","10",0.81,"cherry","","","2017_Oct_03_0912"
37,3,1,5,"Z","0",2.337,"strawberry","","","2017_Oct_03_0912"
37,3,1,6,"C","0",1.073,"kiwi","","","2017_Oct_03_0912"
37,3,1,7,"E","10",1.84,"mango","","","2017_Oct_03_0912"
37,3,1,8,"A","10",0.942,"orange","","","2017_Oct_03_0912"
37,3,1,9,"Y","0",1.988,"plum","","","2017_Oct_03_0912"
37,3,1,10,"X","10",6.075,"pear","","","2017_Oct_03_0912"
37,3,1,11,"XF","5",3.04,"pear","apple","","2017_Oct_03_0912"
37,3,1,12,"F","0",2.488,"apple","","","2017_Oct_03_0912"
37,3,2,13,"W","5",1.705,"banana","","","2017_Oct_03_0912"
37,3,2,14,"D","10",1.537,"peach","","","2017_Oct_03_0912"
37,3,2,15,"B","10",1.637,"cherry","","","2017_Oct_03_0912"
37,3,2,16,"Z","0",1.62,"strawberry","","","2017_Oct_03_0912"
37,3,2,17,"X","10",3.205,"pear","","","2017_Oct_03_0912"
37,3,2,18,"Y","0",1.642,"plum","","","2017_Oct_03_0912"
37,3,2,19,"A","10",1.172,"orange","","","2017_Oct_03_0912"
37,3,2,20,"C","0",1.503,"kiwi","","","2017_Oct_03_0912"
37,3,2,21,"XF","10",3.203,"pear","apple","","2017_Oct_03_0912"
37,3,2,22,"E","10",0.803,"mango","","","2017_Oct_03_0912"
37,3,2,23,"WC","5",1.943,"banana","kiwi","","2017_Oct_03_0912"
37,3,2,24,"F","0",1.62,"apple","","","2017_Oct_03_0912"
38,3,1,1,"Z","3",6.453,"kiwi","","","2017_Oct_03_1044"
38,3,1,2,"E","7",3.537,"mango","","","2017_Oct_03_1044"
38,3,1,3,"C","2",3.62,"strawberry","","","2017_Oct_03_1044"
38,3,1,4,"WC","5",2.32,"pear","strawberry","","2017_Oct_03_1044"
38,3,1,5,"X","7",2.236,"banana","","","2017_Oct_03_1044"
38,3,1,6,"W","8",1.77,"pear","","","2017_Oct_03_1044"
38,3,1,7,"Y","2",1.636,"apple","","","2017_Oct_03_1044"
38,3,1,8,"B","7",2.337,"orange","","","2017_Oct_03_1044"
38,3,1,9,"D","7",1.52,"cherry","","","2017_Oct_03_1044"
38,3,1,10,"F","2",1.887,"peach","","","2017_Oct_03_1044"
38,3,1,11,"XF","5",2.036,"banana","peach","","2017_Oct_03_1044"
38,3,1,12,"A","8",3.337,"plum","","","2017_Oct_03_1044"
38,3,2,13,"Y","2",1.337,"apple","","","2017_Oct_03_1044"
38,3,2,14,"Z","2",1.386,"kiwi","","","2017_Oct_03_1044"
38,3,2,15,"WC","5",1.503,"pear","strawberry","","2017_Oct_03_1044"
38,3,2,16,"W","8",2.17,"pear","","","2017_Oct_03_1044"
38,3,2,17,"X","8",1.17,"banana","","","2017_Oct_03_1044"
38,3,2,18,"B","8",0.953,"orange","","","2017_Oct_03_1044"
38,3,2,19,"F","2",1.37,"peach","","","2017_Oct_03_1044"
38,3,2,20,"C","2",0.836,"strawberry","","","2017_Oct_03_1044"
38,3,2,21,"E","8",2.036,"mango","","","2017_Oct_03_1044"
38,3,2,22,"XF","5",1.787,"banana","peach","","2017_Oct_03_1044"
38,3,2,23,"A","8",1.653,"plum","","","2017_Oct_03_1044"
38,3,2,24,"D","8",1.003,"cherry","","","2017_Oct_03_1044"
39,3,1,1,"X","9",9.786,"banana","","","2017_Oct_03_0930"
39,3,1,2,"D","9",1.103,"orange","","","2017_Oct_03_0930"
39,3,1,3,"C","1",2.705,"peach","","","2017_Oct_03_0930"
39,3,1,4,"A","7",1.804,"pear","","","2017_Oct_03_0930"
39,3,1,5,"E","7",1.27,"mango","","","2017_Oct_03_0930"
39,3,1,6,"W","2",1.927,"cherry","","","2017_Oct_03_0930"
39,3,1,7,"F","2",1.405,"plum","","","2017_Oct_03_0930"
39,3,1,8,"WC","2",3.303,"cherry","peach","","2017_Oct_03_0930"
39,3,1,9,"B","8",1.636,"kiwi","","","2017_Oct_03_0930"
39,3,1,10,"XF","6",4.703,"banana","plum","","2017_Oct_03_0930"
39,3,1,11,"Z","8",4.571,"strawberry","","","2017_Oct_03_0930"
39,3,1,12,"Y","5",2.439,"apple","","","2017_Oct_03_0930"
39,3,2,13,"E","7",1.838,"mango","","","2017_Oct_03_0930"
39,3,2,14,"F","1",1.403,"plum","","","2017_Oct_03_0930"
39,3,2,15,"B","7",1.376,"kiwi","","","2017_Oct_03_0930"
39,3,2,16,"Y","1",1.172,"apple","","","2017_Oct_03_0930"
39,3,2,17,"X","8",1.876,"banana","","","2017_Oct_03_0930"
39,3,2,18,"A","8",1.671,"pear","","","2017_Oct_03_0930"
39,3,2,19,"Z","8",1.237,"strawberry","","","2017_Oct_03_0930"
39,3,2,20,"WC","3",5.471,"cherry","peach","","2017_Oct_03_0930"
39,3,2,21,"W","5",1.825,"cherry","","","2017_Oct_03_0930"
39,3,2,22,"XF","6",3.069,"banana","plum","","2017_Oct_03_0930"
39,3,2,23,"C","1",1.909,"peach","","","2017_Oct_03_0930"
39,3,2,24,"D","10",1.586,"orange","","","2017_Oct_03_0930"
40,3,1,1,"B","8",9.536,"pear","","","2017_Oct_03_1111"
40,3,1,2,"WC","3",7.154,"peach","mango","","2017_Oct_03_1111"
40,3,1,3,"W","5",2.753,"peach","","","2017_Oct_03_1111"
40,3,1,4,"Y","2",2.02,"plum","","","2017_Oct_03_1111"
40,3,1,5,"E","8",2.27,"orange","","","2017_Oct_03_1111"
40,3,1,6,"A","10",1.003,"kiwi","","","2017_Oct_03_1111"
40,3,1,7,"Z","2",3.37,"apple","","","2017_Oct_03_1111"
40,3,1,8,"C","2",0.953,"mango","","","2017_Oct_03_1111"
40,3,1,9,"F","2",0.703,"cherry","","","2017_Oct_03_1111"
40,3,1,10,"D","10",1.303,"banana","","","2017_Oct_03_1111"
40,3,1,11,"XF","7",3.203,"strawberry","cherry","","2017_Oct_03_1111"
40,3,1,12,"X","9",1.753,"strawberry","","","2017_Oct_03_1111"
40,3,2,13,"B","7",2.52,"pear","","","2017_Oct_03_1111"
40,3,2,14,"D","10",0.986,"banana","","","2017_Oct_03_1111"
40,3,2,15,"X","8",0.92,"strawberry","","","2017_Oct_03_1111"
40,3,2,16,"A","9",1.12,"kiwi","","","2017_Oct_03_1111"
40,3,2,17,"Y","2",1.37,"plum","","","2017_Oct_03_1111"
40,3,2,18,"XF","7",4.47,"strawberry","cherry","","2017_Oct_03_1111"
40,3,2,19,"C","1",1.736,"mango","","","2017_Oct_03_1111"
40,3,2,20,"Z","3",4.203,"apple","","","2017_Oct_03_1111"
40,3,2,21,"E","8",3.153,"orange","","","2017_Oct_03_1111"
40,3,2,22,"F","2",1.486,"cherry","","","2017_Oct_03_1111"
40,3,2,23,"W","5",2.653,"peach","","","2017_Oct_03_1111"
40,3,2,24,"WC","5",1.836,"peach","mango","","2017_Oct_03_1111"
