"partic","stage","block","trial","stim","resp","rt","fruitL","fruitR","outcome","date"
1,2,1,1,"C","1",7.726,"peach","","","2016_Nov_28_1042"
1,2,1,2,"B","10",1.63,"apple","","","2016_Nov_28_1042"
1,2,1,3,"X","10",0.864,"kiwi","","","2016_Nov_28_1042"
1,2,1,4,"D","7",2.302,"plum","","","2016_Nov_28_1042"
1,2,1,5,"P","8",1.255,"strawberry","","","2016_Nov_28_1042"
1,2,1,6,"Q","8",0.833,"mango","","","2016_Nov_28_1042"
1,2,1,7,"P","8",2.116,"","strawberry","","2016_Nov_28_1042"
1,2,1,8,"Z","6",1.836,"","pear","","2016_Nov_28_1042"
1,2,1,9,"C","1",2.083,"","peach","","2016_Nov_28_1042"
1,2,1,10,"E","5",1.976,"orange","","","2016_Nov_28_1042"
1,2,1,11,"E","5",0.945,"","orange","","2016_Nov_28_1042"
1,2,1,12,"A","10",1.366,"","cherry","","2016_Nov_28_1042"
1,2,1,13,"B","10",0.692,"","apple","","2016_Nov_28_1042"
1,2,1,14,"Y","0",1.411,"banana","","","2016_Nov_28_1042"
1,2,1,15,"D","1",1.38,"","plum","","2016_Nov_28_1042"
1,2,1,16,"Q","4",1.208,"","mango","","2016_Nov_28_1042"
1,2,1,17,"Z","6",4.224,"pear","","","2016_Nov_28_1042"
1,2,1,18,"A","10",0.976,"cherry","","","2016_Nov_28_1042"
1,2,1,19,"Y","0",1.396,"","banana","","2016_Nov_28_1042"
1,2,1,20,"X","10",1.507,"","kiwi","","2016_Nov_28_1042"
1,2,2,21,"B","10",0.786,"","apple","","2016_Nov_28_1042"
1,2,2,22,"D","7",1.193,"","plum","","2016_Nov_28_1042"
1,2,2,23,"B","10",1.005,"apple","","","2016_Nov_28_1042"
1,2,2,24,"C","1",1.318,"","peach","","2016_Nov_28_1042"
1,2,2,25,"Y","0",0.849,"","banana","","2016_Nov_28_1042"
1,2,2,26,"Y","0",0.507,"banana","","","2016_Nov_28_1042"
1,2,2,27,"Z","3",1.052,"","pear","","2016_Nov_28_1042"
1,2,2,28,"E","5",1.583,"orange","","","2016_Nov_28_1042"
1,2,2,29,"X","7",1.13,"","kiwi","","2016_Nov_28_1042"
1,2,2,30,"P","9",1.974,"strawberry","","","2016_Nov_28_1042"
1,2,2,31,"E","5",1.521,"","orange","","2016_Nov_28_1042"
1,2,2,32,"A","10",2.348,"cherry","","","2016_Nov_28_1042"
1,2,2,33,"D","7",1.099,"plum","","","2016_Nov_28_1042"
1,2,2,34,"Q","1",2.849,"mango","","","2016_Nov_28_1042"
1,2,2,35,"C","1",0.88,"peach","","","2016_Nov_28_1042"
1,2,2,36,"Z","4",1.757,"pear","","","2016_Nov_28_1042"
1,2,2,37,"P","8",1.224,"","strawberry","","2016_Nov_28_1042"
1,2,2,38,"X","8",1.099,"kiwi","","","2016_Nov_28_1042"
1,2,2,39,"Q","4",1.461,"","mango","","2016_Nov_28_1042"
1,2,2,40,"A","10",1.068,"","cherry","","2016_Nov_28_1042"
1,2,3,41,"A","10",0.49,"","cherry","","2016_Nov_28_1042"
1,2,3,42,"Z","3",3.6,"pear","","","2016_Nov_28_1042"
1,2,3,43,"A","10",1.163,"cherry","","","2016_Nov_28_1042"
1,2,3,44,"B","10",0.646,"apple","","","2016_Nov_28_1042"
1,2,3,45,"D","7",1.146,"plum","","","2016_Nov_28_1042"
1,2,3,46,"P","8",0.914,"","strawberry","","2016_Nov_28_1042"
1,2,3,47,"Q","7",5.275,"","mango","","2016_Nov_28_1042"
1,2,3,48,"X","9",0.896,"","kiwi","","2016_Nov_28_1042"
1,2,3,49,"E","5",1.177,"","orange","","2016_Nov_28_1042"
1,2,3,50,"Q","7",0.974,"mango","","","2016_Nov_28_1042"
1,2,3,51,"C","2",1.696,"peach","","","2016_Nov_28_1042"
1,2,3,52,"Y","0",1.333,"banana","","","2016_Nov_28_1042"
1,2,3,53,"C","1",1.161,"","peach","","2016_Nov_28_1042"
1,2,3,54,"D","8",1.927,"","plum","","2016_Nov_28_1042"
1,2,3,55,"E","5",1.364,"orange","","","2016_Nov_28_1042"
1,2,3,56,"Y","0",0.961,"","banana","","2016_Nov_28_1042"
1,2,3,57,"B","10",1.099,"","apple","","2016_Nov_28_1042"
1,2,3,58,"P","7",1.333,"strawberry","","","2016_Nov_28_1042"
1,2,3,59,"Z","3",1.114,"","pear","","2016_Nov_28_1042"
1,2,3,60,"X","4",2.74,"kiwi","","","2016_Nov_28_1042"
1,2,4,61,"A","10",1.161,"","cherry","","2016_Nov_28_1042"
1,2,4,62,"X","3",2.974,"kiwi","","","2016_Nov_28_1042"
1,2,4,63,"C","1",0.916,"peach","","","2016_Nov_28_1042"
1,2,4,64,"E","5",2.583,"orange","","","2016_Nov_28_1042"
1,2,4,65,"E","5",0.802,"","orange","","2016_Nov_28_1042"
1,2,4,66,"Q","7",1.146,"mango","","","2016_Nov_28_1042"
1,2,4,67,"A","10",1.286,"cherry","","","2016_Nov_28_1042"
1,2,4,68,"P","2",2.224,"","strawberry","","2016_Nov_28_1042"
1,2,4,69,"C","1",1.599,"","peach","","2016_Nov_28_1042"
1,2,4,70,"Y","0",0.911,"","banana","","2016_Nov_28_1042"
1,2,4,71,"B","10",1.115,"","apple","","2016_Nov_28_1042"
1,2,4,72,"Q","6",4.372,"","mango","","2016_Nov_28_1042"
1,2,4,73,"D","7",2.115,"plum","","","2016_Nov_28_1042"
1,2,4,74,"Z","4",1.693,"pear","","","2016_Nov_28_1042"
1,2,4,75,"X","8",1.005,"","kiwi","","2016_Nov_28_1042"
1,2,4,76,"D","4",1.177,"","plum","","2016_Nov_28_1042"
1,2,4,77,"P","9",1.474,"strawberry","","","2016_Nov_28_1042"
1,2,4,78,"Y","0",1.068,"banana","","","2016_Nov_28_1042"
1,2,4,79,"Z","5",1.117,"","pear","","2016_Nov_28_1042"
1,2,4,80,"B","10",1.161,"apple","","","2016_Nov_28_1042"
1,2,5,81,"P","9",1.036,"strawberry","","","2016_Nov_28_1042"
1,2,5,82,"A","10",1.054,"","cherry","","2016_Nov_28_1042"
1,2,5,83,"C","2",1.809,"","peach","","2016_Nov_28_1042"
1,2,5,84,"Y","0",1.132,"","banana","","2016_Nov_28_1042"
1,2,5,85,"X","8",5.177,"","kiwi","","2016_Nov_28_1042"
1,2,5,86,"B","10",1.068,"apple","","","2016_Nov_28_1042"
1,2,5,87,"Y","0",1.304,"banana","","","2016_Nov_28_1042"
1,2,5,88,"Z","5",1.365,"","pear","","2016_Nov_28_1042"
1,2,5,89,"E","5",0.958,"orange","","","2016_Nov_28_1042"
1,2,5,90,"P","8",0.958,"","strawberry","","2016_Nov_28_1042"
1,2,5,91,"D","7",2.647,"","plum","","2016_Nov_28_1042"
1,2,5,92,"C","1",1.052,"peach","","","2016_Nov_28_1042"
1,2,5,93,"A","10",1.63,"cherry","","","2016_Nov_28_1042"
1,2,5,94,"Z","4",1.646,"pear","","","2016_Nov_28_1042"
1,2,5,95,"Q","3",2.443,"","mango","","2016_Nov_28_1042"
1,2,5,96,"Q","3",0.614,"mango","","","2016_Nov_28_1042"
1,2,5,97,"B","10",1.224,"","apple","","2016_Nov_28_1042"
1,2,5,98,"X","8",0.896,"kiwi","","","2016_Nov_28_1042"
1,2,5,99,"D","6",3.396,"plum","","","2016_Nov_28_1042"
1,2,5,100,"E","5",1.302,"","orange","","2016_Nov_28_1042"
1,2,6,101,"C","1",2.51,"peach","","","2016_Nov_28_1042"
1,2,6,102,"Q","4",1.257,"","mango","","2016_Nov_28_1042"
1,2,6,103,"A","10",1.224,"","cherry","","2016_Nov_28_1042"
1,2,6,104,"Z","4",2.005,"pear","","","2016_Nov_28_1042"
1,2,6,105,"Q","4",1.411,"mango","","","2016_Nov_28_1042"
1,2,6,106,"Y","0",1.365,"","banana","","2016_Nov_28_1042"
1,2,6,107,"E","5",1.239,"","orange","","2016_Nov_28_1042"
1,2,6,108,"C","1",2.474,"","peach","","2016_Nov_28_1042"
1,2,6,109,"B","10",1.286,"","apple","","2016_Nov_28_1042"
1,2,6,110,"B","10",0.63,"apple","","","2016_Nov_28_1042"
1,2,6,111,"E","5",1.194,"orange","","","2016_Nov_28_1042"
1,2,6,112,"P","8",1.349,"","strawberry","","2016_Nov_28_1042"
1,2,6,113,"X","8",1.005,"","kiwi","","2016_Nov_28_1042"
1,2,6,114,"X","8",0.694,"kiwi","","","2016_Nov_28_1042"
1,2,6,115,"D","5",1.974,"","plum","","2016_Nov_28_1042"
1,2,6,116,"D","5",0.677,"plum","","","2016_Nov_28_1042"
1,2,6,117,"A","10",1.052,"cherry","","","2016_Nov_28_1042"
1,2,6,118,"P","8",3.583,"strawberry","","","2016_Nov_28_1042"
1,2,6,119,"Z","4",1.286,"","pear","","2016_Nov_28_1042"
1,2,6,120,"Y","0",1.2,"banana","","","2016_Nov_28_1042"
2,2,1,1,"A","10",8.547,"","cherry","","2016_Nov_28_0946"
2,2,1,2,"E","7",4.068,"mango","","","2016_Nov_28_0946"
2,2,1,3,"B","10",2.194,"pear","","","2016_Nov_28_0946"
2,2,1,4,"D","9",2.572,"","strawberry","","2016_Nov_28_0946"
2,2,1,5,"Z","10",1.514,"","apple","","2016_Nov_28_0946"
2,2,1,6,"Y","0",1.849,"peach","","","2016_Nov_28_0946"
2,2,1,7,"D","9",2.036,"strawberry","","","2016_Nov_28_0946"
2,2,1,8,"A","10",1.083,"cherry","","","2016_Nov_28_0946"
2,2,1,9,"Q","5",2.881,"orange","","","2016_Nov_28_0946"
2,2,1,10,"E","5",1.208,"","mango","","2016_Nov_28_0946"
2,2,1,11,"X","4",4.741,"","plum","","2016_Nov_28_0946"
2,2,1,12,"Y","0",2.18,"","peach","","2016_Nov_28_0946"
2,2,1,13,"X","5",1.364,"plum","","","2016_Nov_28_0946"
2,2,1,14,"C","0",1.739,"banana","","","2016_Nov_28_0946"
2,2,1,15,"P","7",2.099,"kiwi","","","2016_Nov_28_0946"
2,2,1,16,"C","0",3.038,"","banana","","2016_Nov_28_0946"
2,2,1,17,"B","10",2.911,"","pear","","2016_Nov_28_0946"
2,2,1,18,"Q","6",1.772,"","orange","","2016_Nov_28_0946"
2,2,1,19,"Z","10",1.433,"apple","","","2016_Nov_28_0946"
2,2,1,20,"P","5",2.072,"","kiwi","","2016_Nov_28_0946"
2,2,2,21,"Y","0",1.708,"","peach","","2016_Nov_28_0946"
2,2,2,22,"Z","10",1.395,"","apple","","2016_Nov_28_0946"
2,2,2,23,"C","0",1.572,"banana","","","2016_Nov_28_0946"
2,2,2,24,"B","5",1.382,"pear","","","2016_Nov_28_0946"
2,2,2,25,"Y","0",1.304,"peach","","","2016_Nov_28_0946"
2,2,2,26,"X","8",3.007,"plum","","","2016_Nov_28_0946"
2,2,2,27,"D","9",1.117,"strawberry","","","2016_Nov_28_0946"
2,2,2,28,"X","8",1.208,"","plum","","2016_Nov_28_0946"
2,2,2,29,"E","4",1.255,"","mango","","2016_Nov_28_0946"
2,2,2,30,"B","6",1.257,"","pear","","2016_Nov_28_0946"
2,2,2,31,"D","9",1.694,"","strawberry","","2016_Nov_28_0946"
2,2,2,32,"A","10",1.369,"cherry","","","2016_Nov_28_0946"
2,2,2,33,"E","5",2.458,"mango","","","2016_Nov_28_0946"
2,2,2,34,"A","10",1.71,"","cherry","","2016_Nov_28_0946"
2,2,2,35,"Q","7",1.588,"","orange","","2016_Nov_28_0946"
2,2,2,36,"Q","7",0.944,"orange","","","2016_Nov_28_0946"
2,2,2,37,"P","7",2.224,"kiwi","","","2016_Nov_28_0946"
2,2,2,38,"C","0",1.63,"","banana","","2016_Nov_28_0946"
2,2,2,39,"P","7",1.286,"","kiwi","","2016_Nov_28_0946"
2,2,2,40,"Z","10",1.302,"apple","","","2016_Nov_28_0946"
2,2,3,41,"X","5",1.652,"","plum","","2016_Nov_28_0946"
2,2,3,42,"D","9",1.224,"","strawberry","","2016_Nov_28_0946"
2,2,3,43,"A","10",1.038,"","cherry","","2016_Nov_28_0946"
2,2,3,44,"X","5",1.507,"plum","","","2016_Nov_28_0946"
2,2,3,45,"B","4",1.427,"pear","","","2016_Nov_28_0946"
2,2,3,46,"Q","6",1.257,"","orange","","2016_Nov_28_0946"
2,2,3,47,"B","4",1.116,"","pear","","2016_Nov_28_0946"
2,2,3,48,"A","10",1.195,"cherry","","","2016_Nov_28_0946"
2,2,3,49,"P","3",1.007,"","kiwi","","2016_Nov_28_0946"
2,2,3,50,"E","3",2.012,"mango","","","2016_Nov_28_0946"
2,2,3,51,"C","0",1.208,"banana","","","2016_Nov_28_0946"
2,2,3,52,"D","10",1.602,"strawberry","","","2016_Nov_28_0946"
2,2,3,53,"P","5",1.708,"kiwi","","","2016_Nov_28_0946"
2,2,3,54,"Z","10",1.068,"","apple","","2016_Nov_28_0946"
2,2,3,55,"Y","0",1.43,"peach","","","2016_Nov_28_0946"
2,2,3,56,"C","0",1.286,"","banana","","2016_Nov_28_0946"
2,2,3,57,"Y","0",1.319,"","peach","","2016_Nov_28_0946"
2,2,3,58,"Q","6",1.193,"orange","","","2016_Nov_28_0946"
2,2,3,59,"Z","10",1.413,"apple","","","2016_Nov_28_0946"
2,2,3,60,"E","6",1.802,"","mango","","2016_Nov_28_0946"
2,2,4,61,"A","10",1.337,"cherry","","","2016_Nov_28_0946"
2,2,4,62,"Z","10",1.068,"","apple","","2016_Nov_28_0946"
2,2,4,63,"E","5",1.474,"","mango","","2016_Nov_28_0946"
2,2,4,64,"Y","0",1.349,"","peach","","2016_Nov_28_0946"
2,2,4,65,"P","6",2.848,"","kiwi","","2016_Nov_28_0946"
2,2,4,66,"X","5",2.273,"plum","","","2016_Nov_28_0946"
2,2,4,67,"Z","10",1.161,"apple","","","2016_Nov_28_0946"
2,2,4,68,"A","10",0.569,"","cherry","","2016_Nov_28_0946"
2,2,4,69,"C","0",1.411,"","banana","","2016_Nov_28_0946"
2,2,4,70,"E","5",1.614,"mango","","","2016_Nov_28_0946"
2,2,4,71,"Q","7",1.647,"orange","","","2016_Nov_28_0946"
2,2,4,72,"B","5",1.286,"pear","","","2016_Nov_28_0946"
2,2,4,73,"D","9",1.177,"strawberry","","","2016_Nov_28_0946"
2,2,4,74,"B","4",1.536,"","pear","","2016_Nov_28_0946"
2,2,4,75,"Y","0",1.583,"peach","","","2016_Nov_28_0946"
2,2,4,76,"X","5",1.177,"","plum","","2016_Nov_28_0946"
2,2,4,77,"P","6",1.552,"kiwi","","","2016_Nov_28_0946"
2,2,4,78,"D","9",1.099,"","strawberry","","2016_Nov_28_0946"
2,2,4,79,"C","0",1.021,"banana","","","2016_Nov_28_0946"
2,2,4,80,"Q","5",1.052,"","orange","","2016_Nov_28_0946"
2,2,5,81,"Q","5",0.911,"","orange","","2016_Nov_28_0946"
2,2,5,82,"P","6",1.177,"","kiwi","","2016_Nov_28_0946"
2,2,5,83,"Q","5",2.273,"orange","","","2016_Nov_28_0946"
2,2,5,84,"A","10",1.177,"cherry","","","2016_Nov_28_0946"
2,2,5,85,"P","5",1.195,"kiwi","","","2016_Nov_28_0946"
2,2,5,86,"D","10",1.288,"","strawberry","","2016_Nov_28_0946"
2,2,5,87,"Z","10",1.302,"apple","","","2016_Nov_28_0946"
2,2,5,88,"X","5",1.465,"plum","","","2016_Nov_28_0946"
2,2,5,89,"X","5",0.679,"","plum","","2016_Nov_28_0946"
2,2,5,90,"Y","0",1.286,"peach","","","2016_Nov_28_0946"
2,2,5,91,"Y","0",0.599,"","peach","","2016_Nov_28_0946"
2,2,5,92,"E","6",1.896,"mango","","","2016_Nov_28_0946"
2,2,5,93,"B","5",1.007,"","pear","","2016_Nov_28_0946"
2,2,5,94,"A","10",1.195,"","cherry","","2016_Nov_28_0946"
2,2,5,95,"D","10",1.13,"strawberry","","","2016_Nov_28_0946"
2,2,5,96,"E","3",1.693,"","mango","","2016_Nov_28_0946"
2,2,5,97,"C","0",1.349,"","banana","","2016_Nov_28_0946"
2,2,5,98,"Z","10",1.183,"","apple","","2016_Nov_28_0946"
2,2,5,99,"C","0",1.383,"banana","","","2016_Nov_28_0946"
2,2,5,100,"B","5",1.366,"pear","","","2016_Nov_28_0946"
2,2,6,101,"C","0",1.427,"","banana","","2016_Nov_28_0946"
2,2,6,102,"D","10",1.114,"strawberry","","","2016_Nov_28_0946"
2,2,6,103,"P","5",1.349,"kiwi","","","2016_Nov_28_0946"
2,2,6,104,"X","5",0.996,"","plum","","2016_Nov_28_0946"
2,2,6,105,"X","6",1.071,"plum","","","2016_Nov_28_0946"
2,2,6,106,"B","5",1.177,"pear","","","2016_Nov_28_0946"
2,2,6,107,"B","5",0.677,"","pear","","2016_Nov_28_0946"
2,2,6,108,"E","3",1.318,"","mango","","2016_Nov_28_0946"
2,2,6,109,"A","10",1.414,"cherry","","","2016_Nov_28_0946"
2,2,6,110,"Z","10",0.677,"apple","","","2016_Nov_28_0946"
2,2,6,111,"Q","5",1.489,"orange","","","2016_Nov_28_0946"
2,2,6,112,"C","0",1.069,"banana","","","2016_Nov_28_0946"
2,2,6,113,"A","10",1.2,"","cherry","","2016_Nov_28_0946"
2,2,6,114,"E","5",1.429,"mango","","","2016_Nov_28_0946"
2,2,6,115,"Y","0",1.382,"","peach","","2016_Nov_28_0946"
2,2,6,116,"Z","10",1.474,"","apple","","2016_Nov_28_0946"
2,2,6,117,"Y","0",1.293,"peach","","","2016_Nov_28_0946"
2,2,6,118,"D","10",1.302,"","strawberry","","2016_Nov_28_0946"
2,2,6,119,"Q","5",1.368,"","orange","","2016_Nov_28_0946"
2,2,6,120,"P","5",1.193,"","kiwi","","2016_Nov_28_0946"
3,2,1,1,"A","10",5.099,"","banana","","2016_Nov_28_1125"
3,2,1,2,"B","5",2.115,"","apple","","2016_Nov_28_1125"
3,2,1,3,"A","10",2.021,"banana","","","2016_Nov_28_1125"
3,2,1,4,"D","7",1.679,"","plum","","2016_Nov_28_1125"
3,2,1,5,"Z","8",1.179,"cherry","","","2016_Nov_28_1125"
3,2,1,6,"X","8",1.659,"","pear","","2016_Nov_28_1125"
3,2,1,7,"P","10",1.943,"","kiwi","","2016_Nov_28_1125"
3,2,1,8,"Y","10",2.005,"","orange","","2016_Nov_28_1125"
3,2,1,9,"E","5",1.882,"peach","","","2016_Nov_28_1125"
3,2,1,10,"D","5",0.865,"plum","","","2016_Nov_28_1125"
3,2,1,11,"P","5",1.143,"kiwi","","","2016_Nov_28_1125"
3,2,1,12,"C","5",1.425,"strawberry","","","2016_Nov_28_1125"
3,2,1,13,"Q","10",1.893,"","mango","","2016_Nov_28_1125"
3,2,1,14,"Y","5",2.379,"orange","","","2016_Nov_28_1125"
3,2,1,15,"B","10",1.463,"apple","","","2016_Nov_28_1125"
3,2,1,16,"X","10",0.489,"pear","","","2016_Nov_28_1125"
3,2,1,17,"E","5",2.184,"","peach","","2016_Nov_28_1125"
3,2,1,18,"Z","5",0.677,"","cherry","","2016_Nov_28_1125"
3,2,1,19,"C","5",0.864,"","strawberry","","2016_Nov_28_1125"
3,2,1,20,"Q","10",2.288,"mango","","","2016_Nov_28_1125"
3,2,2,21,"Y","10",0.819,"","orange","","2016_Nov_28_1125"
3,2,2,22,"C","10",0.615,"","strawberry","","2016_Nov_28_1125"
3,2,2,23,"Y","5",1.288,"orange","","","2016_Nov_28_1125"
3,2,2,24,"B","5",1.007,"","apple","","2016_Nov_28_1125"
3,2,2,25,"Q","10",1.552,"mango","","","2016_Nov_28_1125"
3,2,2,26,"X","10",0.786,"","pear","","2016_Nov_28_1125"
3,2,2,27,"E","5",1.773,"peach","","","2016_Nov_28_1125"
3,2,2,28,"Z","5",0.57,"cherry","","","2016_Nov_28_1125"
3,2,2,29,"X","10",1.458,"pear","","","2016_Nov_28_1125"
3,2,2,30,"P","10",0.615,"","kiwi","","2016_Nov_28_1125"
3,2,2,31,"Q","10",0.489,"","mango","","2016_Nov_28_1125"
3,2,2,32,"E","10",0.427,"","peach","","2016_Nov_28_1125"
3,2,2,33,"B","5",1.415,"apple","","","2016_Nov_28_1125"
3,2,2,34,"D","5",3.412,"","plum","","2016_Nov_28_1125"
3,2,2,35,"A","5",0.739,"banana","","","2016_Nov_28_1125"
3,2,2,36,"D","5",0.614,"plum","","","2016_Nov_28_1125"
3,2,2,37,"P","10",1.663,"kiwi","","","2016_Nov_28_1125"
3,2,2,38,"C","5",1.317,"strawberry","","","2016_Nov_28_1125"
3,2,2,39,"A","10",1.648,"","banana","","2016_Nov_28_1125"
3,2,2,40,"Z","10",1.615,"","cherry","","2016_Nov_28_1125"
3,2,3,41,"E","5",1.43,"","peach","","2016_Nov_28_1125"
3,2,3,42,"Y","5",0.864,"","orange","","2016_Nov_28_1125"
3,2,3,43,"A","10",1.599,"","banana","","2016_Nov_28_1125"
3,2,3,44,"P","10",1.992,"kiwi","","","2016_Nov_28_1125"
3,2,3,45,"C","5",2.382,"","strawberry","","2016_Nov_28_1125"
3,2,3,46,"C","5",0.552,"strawberry","","","2016_Nov_28_1125"
3,2,3,47,"Q","10",1.255,"mango","","","2016_Nov_28_1125"
3,2,3,48,"X","10",0.989,"","pear","","2016_Nov_28_1125"
3,2,3,49,"D","10",0.694,"","plum","","2016_Nov_28_1125"
3,2,3,50,"X","10",0.786,"pear","","","2016_Nov_28_1125"
3,2,3,51,"A","10",0.802,"banana","","","2016_Nov_28_1125"
3,2,3,52,"Y","5",2.134,"orange","","","2016_Nov_28_1125"
3,2,3,53,"Z","5",0.677,"cherry","","","2016_Nov_28_1125"
3,2,3,54,"B","5",0.927,"","apple","","2016_Nov_28_1125"
3,2,3,55,"Z","5",0.552,"","cherry","","2016_Nov_28_1125"
3,2,3,56,"D","5",1.757,"plum","","","2016_Nov_28_1125"
3,2,3,57,"B","5",0.614,"apple","","","2016_Nov_28_1125"
3,2,3,58,"Q","10",2.411,"","mango","","2016_Nov_28_1125"
3,2,3,59,"E","10",0.757,"peach","","","2016_Nov_28_1125"
3,2,3,60,"P","10",0.677,"","kiwi","","2016_Nov_28_1125"
3,2,4,61,"Y","5",1.382,"orange","","","2016_Nov_28_1125"
3,2,4,62,"A","10",1.505,"","banana","","2016_Nov_28_1125"
3,2,4,63,"Q","10",1.177,"mango","","","2016_Nov_28_1125"
3,2,4,64,"B","10",0.802,"","apple","","2016_Nov_28_1125"
3,2,4,65,"C","5",2.085,"strawberry","","","2016_Nov_28_1125"
3,2,4,66,"P","5",0.819,"kiwi","","","2016_Nov_28_1125"
3,2,4,67,"X","10",2.458,"","pear","","2016_Nov_28_1125"
3,2,4,68,"C","10",1.007,"","strawberry","","2016_Nov_28_1125"
3,2,4,69,"Z","5",1.755,"","cherry","","2016_Nov_28_1125"
3,2,4,70,"Q","10",2.271,"","mango","","2016_Nov_28_1125"
3,2,4,71,"Y","5",1.93,"","orange","","2016_Nov_28_1125"
3,2,4,72,"D","5",0.677,"plum","","","2016_Nov_28_1125"
3,2,4,73,"X","5",0.49,"pear","","","2016_Nov_28_1125"
3,2,4,74,"E","10",1.383,"","peach","","2016_Nov_28_1125"
3,2,4,75,"A","10",0.795,"banana","","","2016_Nov_28_1125"
3,2,4,76,"E","5",1.304,"peach","","","2016_Nov_28_1125"
3,2,4,77,"B","5",0.802,"apple","","","2016_Nov_28_1125"
3,2,4,78,"D","10",1.805,"","plum","","2016_Nov_28_1125"
3,2,4,79,"Z","5",1.318,"cherry","","","2016_Nov_28_1125"
3,2,4,80,"P","7",1.179,"","kiwi","","2016_Nov_28_1125"
3,2,5,81,"P","6",1.601,"kiwi","","","2016_Nov_28_1125"
3,2,5,82,"B","5",1.005,"apple","","","2016_Nov_28_1125"
3,2,5,83,"D","5",0.74,"plum","","","2016_Nov_28_1125"
3,2,5,84,"E","5",0.757,"peach","","","2016_Nov_28_1125"
3,2,5,85,"Y","5",0.882,"orange","","","2016_Nov_28_1125"
3,2,5,86,"Y","5",0.632,"","orange","","2016_Nov_28_1125"
3,2,5,87,"B","5",0.74,"","apple","","2016_Nov_28_1125"
3,2,5,88,"X","10",2.145,"","pear","","2016_Nov_28_1125"
3,2,5,89,"D","10",0.677,"","plum","","2016_Nov_28_1125"
3,2,5,90,"Q","10",0.802,"mango","","","2016_Nov_28_1125"
3,2,5,91,"E","5",1.586,"","peach","","2016_Nov_28_1125"
3,2,5,92,"Z","5",0.599,"","cherry","","2016_Nov_28_1125"
3,2,5,93,"C","5",0.664,"strawberry","","","2016_Nov_28_1125"
3,2,5,94,"P","10",1.411,"","kiwi","","2016_Nov_28_1125"
3,2,5,95,"X","10",0.632,"pear","","","2016_Nov_28_1125"
3,2,5,96,"A","10",0.63,"banana","","","2016_Nov_28_1125"
3,2,5,97,"Q","10",1.052,"","mango","","2016_Nov_28_1125"
3,2,5,98,"C","5",1.63,"","strawberry","","2016_Nov_28_1125"
3,2,5,99,"Z","5",0.507,"cherry","","","2016_Nov_28_1125"
3,2,5,100,"A","10",1.615,"","banana","","2016_Nov_28_1125"
3,2,6,101,"E","5",1.257,"","peach","","2016_Nov_28_1125"
3,2,6,102,"B","10",1.773,"apple","","","2016_Nov_28_1125"
3,2,6,103,"P","10",0.851,"","kiwi","","2016_Nov_28_1125"
3,2,6,104,"P","10",0.614,"kiwi","","","2016_Nov_28_1125"
3,2,6,105,"D","10",0.677,"plum","","","2016_Nov_28_1125"
3,2,6,106,"X","10",0.742,"","pear","","2016_Nov_28_1125"
3,2,6,107,"A","10",0.661,"","banana","","2016_Nov_28_1125"
3,2,6,108,"A","10",0.552,"banana","","","2016_Nov_28_1125"
3,2,6,109,"C","5",1.226,"strawberry","","","2016_Nov_28_1125"
3,2,6,110,"D","10",1.288,"","plum","","2016_Nov_28_1125"
3,2,6,111,"Y","5",2.239,"orange","","","2016_Nov_28_1125"
3,2,6,112,"X","10",1.867,"pear","","","2016_Nov_28_1125"
3,2,6,113,"Z","5",1.786,"cherry","","","2016_Nov_28_1125"
3,2,6,114,"E","5",0.74,"peach","","","2016_Nov_28_1125"
3,2,6,115,"C","5",0.694,"","strawberry","","2016_Nov_28_1125"
3,2,6,116,"Z","5",0.552,"","cherry","","2016_Nov_28_1125"
3,2,6,117,"Q","10",1.536,"mango","","","2016_Nov_28_1125"
3,2,6,118,"Y","10",1.57,"","orange","","2016_Nov_28_1125"
3,2,6,119,"Q","10",0.882,"","mango","","2016_Nov_28_1125"
3,2,6,120,"B","5",1.773,"","apple","","2016_Nov_28_1125"
4,2,1,1,"A","10",14.64,"mango","","","2016_Nov_28_1027"
4,2,1,2,"Q","10",2.364,"","kiwi","","2016_Nov_28_1027"
4,2,1,3,"D","3",5.588,"pear","","","2016_Nov_28_1027"
4,2,1,4,"P","10",2.954,"","plum","","2016_Nov_28_1027"
4,2,1,5,"Z","5",2.536,"","cherry","","2016_Nov_28_1027"
4,2,1,6,"B","10",1.536,"","banana","","2016_Nov_28_1027"
4,2,1,7,"Y","2",2.974,"","strawberry","","2016_Nov_28_1027"
4,2,1,8,"X","5",7.896,"","peach","","2016_Nov_28_1027"
4,2,1,9,"B","7",3.865,"banana","","","2016_Nov_28_1027"
4,2,1,10,"D","5",2.318,"","pear","","2016_Nov_28_1027"
4,2,1,11,"C","5",3.771,"orange","","","2016_Nov_28_1027"
4,2,1,12,"P","5",1.63,"plum","","","2016_Nov_28_1027"
4,2,1,13,"Z","8",2.817,"cherry","","","2016_Nov_28_1027"
4,2,1,14,"X","5",1.911,"peach","","","2016_Nov_28_1027"
4,2,1,15,"E","7",2.272,"","apple","","2016_Nov_28_1027"
4,2,1,16,"A","10",1.599,"","mango","","2016_Nov_28_1027"
4,2,1,17,"E","8",1.661,"apple","","","2016_Nov_28_1027"
4,2,1,18,"C","8",1.614,"","orange","","2016_Nov_28_1027"
4,2,1,19,"Y","4",2.834,"strawberry","","","2016_Nov_28_1027"
4,2,1,20,"Q","5",2.647,"kiwi","","","2016_Nov_28_1027"
4,2,2,21,"Z","3",2.945,"","cherry","","2016_Nov_28_1027"
4,2,2,22,"B","9",2.474,"","banana","","2016_Nov_28_1027"
4,2,2,23,"D","4",2.429,"","pear","","2016_Nov_28_1027"
4,2,2,24,"E","8",1.333,"","apple","","2016_Nov_28_1027"
4,2,2,25,"C","1",5.521,"orange","","","2016_Nov_28_1027"
4,2,2,26,"P","8",4.13,"","plum","","2016_Nov_28_1027"
4,2,2,27,"Q","8",1.099,"kiwi","","","2016_Nov_28_1027"
4,2,2,28,"D","5",1.773,"pear","","","2016_Nov_28_1027"
4,2,2,29,"A","10",1.958,"mango","","","2016_Nov_28_1027"
4,2,2,30,"X","5",5.055,"peach","","","2016_Nov_28_1027"
4,2,2,31,"P","5",7.009,"plum","","","2016_Nov_28_1027"
4,2,2,32,"Q","5",1.302,"","kiwi","","2016_Nov_28_1027"
4,2,2,33,"B","5",1.114,"banana","","","2016_Nov_28_1027"
4,2,2,34,"E","5",0.802,"apple","","","2016_Nov_28_1027"
4,2,2,35,"Z","4",4.849,"cherry","","","2016_Nov_28_1027"
4,2,2,36,"A","10",1.663,"","mango","","2016_Nov_28_1027"
4,2,2,37,"C","2",7.686,"","orange","","2016_Nov_28_1027"
4,2,2,38,"Y","2",3.354,"","strawberry","","2016_Nov_28_1027"
4,2,2,39,"Y","2",1.226,"strawberry","","","2016_Nov_28_1027"
4,2,2,40,"X","5",4.633,"","peach","","2016_Nov_28_1027"
4,2,3,41,"P","3",4.396,"","plum","","2016_Nov_28_1027"
4,2,3,42,"C","3",3.896,"","orange","","2016_Nov_28_1027"
4,2,3,43,"D","3",3.396,"","pear","","2016_Nov_28_1027"
4,2,3,44,"A","10",2.239,"","mango","","2016_Nov_28_1027"
4,2,3,45,"B","5",3.677,"banana","","","2016_Nov_28_1027"
4,2,3,46,"X","5",1.083,"peach","","","2016_Nov_28_1027"
4,2,3,47,"C","3",2.896,"orange","","","2016_Nov_28_1027"
4,2,3,48,"Q","5",1.507,"","kiwi","","2016_Nov_28_1027"
4,2,3,49,"Y","5",5.461,"","strawberry","","2016_Nov_28_1027"
4,2,3,50,"B","5",1.132,"","banana","","2016_Nov_28_1027"
4,2,3,51,"Y","5",1.507,"strawberry","","","2016_Nov_28_1027"
4,2,3,52,"X","5",1.27,"","peach","","2016_Nov_28_1027"
4,2,3,53,"Q","5",0.989,"kiwi","","","2016_Nov_28_1027"
4,2,3,54,"P","8",2.569,"plum","","","2016_Nov_28_1027"
4,2,3,55,"E","8",1.333,"","apple","","2016_Nov_28_1027"
4,2,3,56,"Z","2",6.555,"","cherry","","2016_Nov_28_1027"
4,2,3,57,"A","10",1.505,"mango","","","2016_Nov_28_1027"
4,2,3,58,"E","8",3.444,"apple","","","2016_Nov_28_1027"
4,2,3,59,"Z","3",2.943,"cherry","","","2016_Nov_28_1027"
4,2,3,60,"D","3",4.474,"pear","","","2016_Nov_28_1027"
4,2,4,61,"P","7",1.411,"","plum","","2016_Nov_28_1027"
4,2,4,62,"Q","7",2.614,"","kiwi","","2016_Nov_28_1027"
4,2,4,63,"Q","7",1.192,"kiwi","","","2016_Nov_28_1027"
4,2,4,64,"A","10",1.496,"","mango","","2016_Nov_28_1027"
4,2,4,65,"B","7",4.333,"banana","","","2016_Nov_28_1027"
4,2,4,66,"A","10",1.308,"mango","","","2016_Nov_28_1027"
4,2,4,67,"D","3",7.526,"pear","","","2016_Nov_28_1027"
4,2,4,68,"Z","8",4.489,"cherry","","","2016_Nov_28_1027"
4,2,4,69,"Y","5",7.851,"strawberry","","","2016_Nov_28_1027"
4,2,4,70,"Y","5",0.864,"","strawberry","","2016_Nov_28_1027"
4,2,4,71,"P","7",3.632,"plum","","","2016_Nov_28_1027"
4,2,4,72,"E","7",1.755,"apple","","","2016_Nov_28_1027"
4,2,4,73,"C","5",3.07,"","orange","","2016_Nov_28_1027"
4,2,4,74,"D","8",1.319,"","pear","","2016_Nov_28_1027"
4,2,4,75,"Z","7",1.49,"","cherry","","2016_Nov_28_1027"
4,2,4,76,"E","7",0.935,"","apple","","2016_Nov_28_1027"
4,2,4,77,"C","7",0.802,"orange","","","2016_Nov_28_1027"
4,2,4,78,"X","5",3.022,"","peach","","2016_Nov_28_1027"
4,2,4,79,"B","8",4.443,"","banana","","2016_Nov_28_1027"
4,2,4,80,"X","5",1.52,"peach","","","2016_Nov_28_1027"
4,2,5,81,"C","3",8.445,"orange","","","2016_Nov_28_1027"
4,2,5,82,"X","5",4.958,"","peach","","2016_Nov_28_1027"
4,2,5,83,"D","3",2.661,"pear","","","2016_Nov_28_1027"
4,2,5,84,"Q","8",3.427,"kiwi","","","2016_Nov_28_1027"
4,2,5,85,"E","9",1.903,"apple","","","2016_Nov_28_1027"
4,2,5,86,"A","10",1.333,"mango","","","2016_Nov_28_1027"
4,2,5,87,"Z","8",5.208,"","cherry","","2016_Nov_28_1027"
4,2,5,88,"P","6",3.257,"","plum","","2016_Nov_28_1027"
4,2,5,89,"Q","7",0.989,"","kiwi","","2016_Nov_28_1027"
4,2,5,90,"B","8",2.911,"banana","","","2016_Nov_28_1027"
4,2,5,91,"X","8",0.663,"peach","","","2016_Nov_28_1027"
4,2,5,92,"Y","8",1.553,"strawberry","","","2016_Nov_28_1027"
4,2,5,93,"B","5",2.179,"","banana","","2016_Nov_28_1027"
4,2,5,94,"Y","7",1.302,"","strawberry","","2016_Nov_28_1027"
4,2,5,95,"Z","7",0.739,"cherry","","","2016_Nov_28_1027"
4,2,5,96,"A","10",2.13,"","mango","","2016_Nov_28_1027"
4,2,5,97,"E","8",1.599,"","apple","","2016_Nov_28_1027"
4,2,5,98,"C","4",1.632,"","orange","","2016_Nov_28_1027"
4,2,5,99,"D","4",2.083,"","pear","","2016_Nov_28_1027"
4,2,5,100,"P","8",1.599,"plum","","","2016_Nov_28_1027"
4,2,6,101,"C","2",1.599,"","orange","","2016_Nov_28_1027"
4,2,6,102,"P","8",1.036,"plum","","","2016_Nov_28_1027"
4,2,6,103,"B","8",1.614,"","banana","","2016_Nov_28_1027"
4,2,6,104,"X","4",1.804,"","peach","","2016_Nov_28_1027"
4,2,6,105,"Z","4",2.286,"","cherry","","2016_Nov_28_1027"
4,2,6,106,"P","8",2.461,"","plum","","2016_Nov_28_1027"
4,2,6,107,"Y","7",2.382,"","strawberry","","2016_Nov_28_1027"
4,2,6,108,"D","3",2.038,"","pear","","2016_Nov_28_1027"
4,2,6,109,"C","3",1.786,"orange","","","2016_Nov_28_1027"
4,2,6,110,"E","8",1.692,"apple","","","2016_Nov_28_1027"
4,2,6,111,"Q","8",1.599,"kiwi","","","2016_Nov_28_1027"
4,2,6,112,"A","8",0.621,"","mango","","2016_Nov_28_1027"
4,2,6,113,"X","5",2.058,"peach","","","2016_Nov_28_1027"
4,2,6,114,"A","10",1.273,"mango","","","2016_Nov_28_1027"
4,2,6,115,"B","7",4.474,"banana","","","2016_Nov_28_1027"
4,2,6,116,"D","3",1.507,"pear","","","2016_Nov_28_1027"
4,2,6,117,"Z","3",3.38,"cherry","","","2016_Nov_28_1027"
4,2,6,118,"Y","6",4.534,"strawberry","","","2016_Nov_28_1027"
4,2,6,119,"E","7",1.353,"","apple","","2016_Nov_28_1027"
4,2,6,120,"Q","7",1.18,"","kiwi","","2016_Nov_28_1027"
5,2,1,1,"P","6",8.952,"","kiwi","","2016_Nov_28_1207"
5,2,1,2,"Q","8",2.432,"cherry","","","2016_Nov_28_1207"
5,2,1,3,"Y","8",3.819,"","peach","","2016_Nov_28_1207"
5,2,1,4,"D","2",2.166,"pear","","","2016_Nov_28_1207"
5,2,1,5,"D","2",1.413,"","pear","","2016_Nov_28_1207"
5,2,1,6,"Z","5",2.099,"plum","","","2016_Nov_28_1207"
5,2,1,7,"C","0",2.351,"","apple","","2016_Nov_28_1207"
5,2,1,8,"A","10",4.32,"mango","","","2016_Nov_28_1207"
5,2,1,9,"E","8",2.305,"banana","","","2016_Nov_28_1207"
5,2,1,10,"A","10",4.208,"","mango","","2016_Nov_28_1207"
5,2,1,11,"B","5",2.026,"","strawberry","","2016_Nov_28_1207"
5,2,1,12,"Y","8",3.476,"peach","","","2016_Nov_28_1207"
5,2,1,13,"X","8",1.88,"","orange","","2016_Nov_28_1207"
5,2,1,14,"Q","8",1.851,"","cherry","","2016_Nov_28_1207"
5,2,1,15,"E","6",1.702,"","banana","","2016_Nov_28_1207"
5,2,1,16,"B","8",3.286,"strawberry","","","2016_Nov_28_1207"
5,2,1,17,"C","0",1.807,"apple","","","2016_Nov_28_1207"
5,2,1,18,"Z","6",4.542,"","plum","","2016_Nov_28_1207"
5,2,1,19,"P","8",2.992,"kiwi","","","2016_Nov_28_1207"
5,2,1,20,"X","8",1.354,"orange","","","2016_Nov_28_1207"
5,2,2,21,"A","10",1.787,"","mango","","2016_Nov_28_1207"
5,2,2,22,"P","8",1.286,"","kiwi","","2016_Nov_28_1207"
5,2,2,23,"X","8",1.177,"","orange","","2016_Nov_28_1207"
5,2,2,24,"Q","7",1.24,"","cherry","","2016_Nov_28_1207"
5,2,2,25,"B","8",1.445,"strawberry","","","2016_Nov_28_1207"
5,2,2,26,"D","5",2.193,"","pear","","2016_Nov_28_1207"
5,2,2,27,"X","8",1.245,"orange","","","2016_Nov_28_1207"
5,2,2,28,"C","0",1.349,"apple","","","2016_Nov_28_1207"
5,2,2,29,"E","6",1.239,"","banana","","2016_Nov_28_1207"
5,2,2,30,"P","8",1.177,"kiwi","","","2016_Nov_28_1207"
5,2,2,31,"Q","8",1.021,"cherry","","","2016_Nov_28_1207"
5,2,2,32,"Y","8",1.411,"","peach","","2016_Nov_28_1207"
5,2,2,33,"Z","6",2.271,"plum","","","2016_Nov_28_1207"
5,2,2,34,"D","8",1.599,"pear","","","2016_Nov_28_1207"
5,2,2,35,"C","0",1.489,"","apple","","2016_Nov_28_1207"
5,2,2,36,"Z","7",1.261,"","plum","","2016_Nov_28_1207"
5,2,2,37,"E","7",2.802,"banana","","","2016_Nov_28_1207"
5,2,2,38,"A","10",1.616,"mango","","","2016_Nov_28_1207"
5,2,2,39,"Y","6",1.411,"peach","","","2016_Nov_28_1207"
5,2,2,40,"B","8",2.802,"","strawberry","","2016_Nov_28_1207"
5,2,3,41,"X","8",1.505,"orange","","","2016_Nov_28_1207"
5,2,3,42,"A","10",1.21,"","mango","","2016_Nov_28_1207"
5,2,3,43,"B","8",1.521,"strawberry","","","2016_Nov_28_1207"
5,2,3,44,"Z","7",4.133,"","plum","","2016_Nov_28_1207"
5,2,3,45,"P","8",1.114,"","kiwi","","2016_Nov_28_1207"
5,2,3,46,"C","0",1.583,"apple","","","2016_Nov_28_1207"
5,2,3,47,"B","8",1.242,"","strawberry","","2016_Nov_28_1207"
5,2,3,48,"E","6",1.177,"","banana","","2016_Nov_28_1207"
5,2,3,49,"E","6",0.929,"banana","","","2016_Nov_28_1207"
5,2,3,50,"Q","8",1.366,"","cherry","","2016_Nov_28_1207"
5,2,3,51,"X","8",0.757,"","orange","","2016_Nov_28_1207"
5,2,3,52,"Y","8",0.802,"peach","","","2016_Nov_28_1207"
5,2,3,53,"Y","8",0.489,"","peach","","2016_Nov_28_1207"
5,2,3,54,"D","7",1.384,"pear","","","2016_Nov_28_1207"
5,2,3,55,"Q","8",0.708,"cherry","","","2016_Nov_28_1207"
5,2,3,56,"Z","6",1.476,"plum","","","2016_Nov_28_1207"
5,2,3,57,"C","0",2.349,"","apple","","2016_Nov_28_1207"
5,2,3,58,"P","8",1.693,"kiwi","","","2016_Nov_28_1207"
5,2,3,59,"A","10",1.119,"mango","","","2016_Nov_28_1207"
5,2,3,60,"D","7",1.914,"","pear","","2016_Nov_28_1207"
5,2,4,61,"Y","8",1.258,"","peach","","2016_Nov_28_1207"
5,2,4,62,"Q","8",0.853,"cherry","","","2016_Nov_28_1207"
5,2,4,63,"C","0",1.395,"","apple","","2016_Nov_28_1207"
5,2,4,64,"D","7",2.224,"","pear","","2016_Nov_28_1207"
5,2,4,65,"B","8",2.286,"strawberry","","","2016_Nov_28_1207"
5,2,4,66,"A","10",1.255,"mango","","","2016_Nov_28_1207"
5,2,4,67,"A","10",0.677,"","mango","","2016_Nov_28_1207"
5,2,4,68,"Z","6",2.24,"plum","","","2016_Nov_28_1207"
5,2,4,69,"P","8",1.899,"","kiwi","","2016_Nov_28_1207"
5,2,4,70,"P","8",0.536,"kiwi","","","2016_Nov_28_1207"
5,2,4,71,"X","8",0.57,"orange","","","2016_Nov_28_1207"
5,2,4,72,"Y","8",0.882,"peach","","","2016_Nov_28_1207"
5,2,4,73,"E","6",1.286,"","banana","","2016_Nov_28_1207"
5,2,4,74,"B","8",1.068,"","strawberry","","2016_Nov_28_1207"
5,2,4,75,"C","0",2.286,"apple","","","2016_Nov_28_1207"
5,2,4,76,"X","8",0.927,"","orange","","2016_Nov_28_1207"
5,2,4,77,"D","7",1.634,"pear","","","2016_Nov_28_1207"
5,2,4,78,"E","6",1.63,"banana","","","2016_Nov_28_1207"
5,2,4,79,"Q","8",1.88,"","cherry","","2016_Nov_28_1207"
5,2,4,80,"Z","8",0.849,"","plum","","2016_Nov_28_1207"
5,2,5,81,"X","8",0.927,"","orange","","2016_Nov_28_1207"
5,2,5,82,"E","6",1.242,"banana","","","2016_Nov_28_1207"
5,2,5,83,"D","6",1.962,"","pear","","2016_Nov_28_1207"
5,2,5,84,"Z","7",1.849,"plum","","","2016_Nov_28_1207"
5,2,5,85,"C","0",1.288,"","apple","","2016_Nov_28_1207"
5,2,5,86,"B","8",1.067,"strawberry","","","2016_Nov_28_1207"
5,2,5,87,"X","8",0.427,"orange","","","2016_Nov_28_1207"
5,2,5,88,"B","8",0.489,"","strawberry","","2016_Nov_28_1207"
5,2,5,89,"Q","8",0.739,"cherry","","","2016_Nov_28_1207"
5,2,5,90,"P","8",0.664,"kiwi","","","2016_Nov_28_1207"
5,2,5,91,"C","0",2.615,"apple","","","2016_Nov_28_1207"
5,2,5,92,"Y","8",1.802,"","peach","","2016_Nov_28_1207"
5,2,5,93,"A","10",1.161,"","mango","","2016_Nov_28_1207"
5,2,5,94,"D","8",0.817,"pear","","","2016_Nov_28_1207"
5,2,5,95,"Q","8",0.677,"","cherry","","2016_Nov_28_1207"
5,2,5,96,"P","8",0.507,"","kiwi","","2016_Nov_28_1207"
5,2,5,97,"A","8",0.552,"mango","","","2016_Nov_28_1207"
5,2,5,98,"Y","8",1.507,"peach","","","2016_Nov_28_1207"
5,2,5,99,"E","6",2.333,"","banana","","2016_Nov_28_1207"
5,2,5,100,"Z","7",1.458,"","plum","","2016_Nov_28_1207"
5,2,6,101,"D","8",0.992,"pear","","","2016_Nov_28_1207"
5,2,6,102,"Y","8",0.57,"peach","","","2016_Nov_28_1207"
5,2,6,103,"Y","8",0.489,"","peach","","2016_Nov_28_1207"
5,2,6,104,"D","8",1.052,"","pear","","2016_Nov_28_1207"
5,2,6,105,"B","8",0.739,"","strawberry","","2016_Nov_28_1207"
5,2,6,106,"Q","9",1.708,"cherry","","","2016_Nov_28_1207"
5,2,6,107,"A","10",1.071,"","mango","","2016_Nov_28_1207"
5,2,6,108,"E","6",1.964,"banana","","","2016_Nov_28_1207"
5,2,6,109,"Z","7",1.43,"plum","","","2016_Nov_28_1207"
5,2,6,110,"C","0",2.35,"apple","","","2016_Nov_28_1207"
5,2,6,111,"A","10",1.505,"mango","","","2016_Nov_28_1207"
5,2,6,112,"X","8",1.242,"orange","","","2016_Nov_28_1207"
5,2,6,113,"P","8",0.661,"kiwi","","","2016_Nov_28_1207"
5,2,6,114,"Z","7",1.193,"","plum","","2016_Nov_28_1207"
5,2,6,115,"B","8",0.911,"strawberry","","","2016_Nov_28_1207"
5,2,6,116,"Q","8",0.677,"","cherry","","2016_Nov_28_1207"
5,2,6,117,"P","8",0.552,"","kiwi","","2016_Nov_28_1207"
5,2,6,118,"E","6",1.224,"","banana","","2016_Nov_28_1207"
5,2,6,119,"X","8",0.632,"","orange","","2016_Nov_28_1207"
5,2,6,120,"C","0",1.239,"","apple","","2016_Nov_28_1207"
6,2,1,1,"D","7",9.727,"","strawberry","","2016_Nov_28_1109"
6,2,1,2,"Y","6",2.208,"","plum","","2016_Nov_28_1109"
6,2,1,3,"Z","3",1.902,"","cherry","","2016_Nov_28_1109"
6,2,1,4,"B","8",2.146,"","mango","","2016_Nov_28_1109"
6,2,1,5,"E","7",1.614,"","kiwi","","2016_Nov_28_1109"
6,2,1,6,"Y","4",4.918,"plum","","","2016_Nov_28_1109"
6,2,1,7,"Q","10",1.902,"","orange","","2016_Nov_28_1109"
6,2,1,8,"E","9",2.851,"kiwi","","","2016_Nov_28_1109"
6,2,1,9,"Q","9",1.974,"orange","","","2016_Nov_28_1109"
6,2,1,10,"C","2",1.976,"banana","","","2016_Nov_28_1109"
6,2,1,11,"P","8",2.396,"pear","","","2016_Nov_28_1109"
6,2,1,12,"B","7",3.271,"mango","","","2016_Nov_28_1109"
6,2,1,13,"A","10",1.771,"apple","","","2016_Nov_28_1109"
6,2,1,14,"X","10",1.177,"peach","","","2016_Nov_28_1109"
6,2,1,15,"Z","4",2.022,"cherry","","","2016_Nov_28_1109"
6,2,1,16,"D","7",2.386,"strawberry","","","2016_Nov_28_1109"
6,2,1,17,"P","8",3.49,"","pear","","2016_Nov_28_1109"
6,2,1,18,"A","10",2.755,"","apple","","2016_Nov_28_1109"
6,2,1,19,"X","10",1.262,"","peach","","2016_Nov_28_1109"
6,2,1,20,"C","2",2.163,"","banana","","2016_Nov_28_1109"
6,2,2,21,"B","7",5.693,"mango","","","2016_Nov_28_1109"
6,2,2,22,"D","4",1.833,"","strawberry","","2016_Nov_28_1109"
6,2,2,23,"E","7",1.943,"","kiwi","","2016_Nov_28_1109"
6,2,2,24,"Z","4",2.115,"","cherry","","2016_Nov_28_1109"
6,2,2,25,"Q","10",1.82,"orange","","","2016_Nov_28_1109"
6,2,2,26,"D","10",1.099,"strawberry","","","2016_Nov_28_1109"
6,2,2,27,"Z","5",1.573,"cherry","","","2016_Nov_28_1109"
6,2,2,28,"B","7",3.163,"","mango","","2016_Nov_28_1109"
6,2,2,29,"X","10",1.668,"peach","","","2016_Nov_28_1109"
6,2,2,30,"C","2",1.633,"","banana","","2016_Nov_28_1109"
6,2,2,31,"Y","3",1.661,"plum","","","2016_Nov_28_1109"
6,2,2,32,"C","2",1.132,"banana","","","2016_Nov_28_1109"
6,2,2,33,"E","7",2.319,"kiwi","","","2016_Nov_28_1109"
6,2,2,34,"P","9",1.708,"","pear","","2016_Nov_28_1109"
6,2,2,35,"Y","4",3.521,"","plum","","2016_Nov_28_1109"
6,2,2,36,"X","10",1.646,"","peach","","2016_Nov_28_1109"
6,2,2,37,"P","8",1.817,"pear","","","2016_Nov_28_1109"
6,2,2,38,"A","10",2.309,"apple","","","2016_Nov_28_1109"
6,2,2,39,"A","10",1.443,"","apple","","2016_Nov_28_1109"
6,2,2,40,"Q","10",1.052,"","orange","","2016_Nov_28_1109"
6,2,3,41,"C","2",1.474,"banana","","","2016_Nov_28_1109"
6,2,3,42,"D","4",2.005,"strawberry","","","2016_Nov_28_1109"
6,2,3,43,"A","10",2.439,"","apple","","2016_Nov_28_1109"
6,2,3,44,"Y","6",1.155,"plum","","","2016_Nov_28_1109"
6,2,3,45,"P","9",2.351,"","pear","","2016_Nov_28_1109"
6,2,3,46,"E","7",1.771,"kiwi","","","2016_Nov_28_1109"
6,2,3,47,"Z","4",1.554,"","cherry","","2016_Nov_28_1109"
6,2,3,48,"B","7",1.786,"mango","","","2016_Nov_28_1109"
6,2,3,49,"A","10",1.304,"apple","","","2016_Nov_28_1109"
6,2,3,50,"E","8",2.271,"","kiwi","","2016_Nov_28_1109"
6,2,3,51,"X","10",1.146,"peach","","","2016_Nov_28_1109"
6,2,3,52,"D","10",1.302,"","strawberry","","2016_Nov_28_1109"
6,2,3,53,"X","10",1.349,"","peach","","2016_Nov_28_1109"
6,2,3,54,"B","4",1.771,"","mango","","2016_Nov_28_1109"
6,2,3,55,"P","8",1.505,"pear","","","2016_Nov_28_1109"
6,2,3,56,"Z","4",4.443,"cherry","","","2016_Nov_28_1109"
6,2,3,57,"Q","9",1.849,"","orange","","2016_Nov_28_1109"
6,2,3,58,"Y","4",2.684,"","plum","","2016_Nov_28_1109"
6,2,3,59,"Q","8",1.648,"orange","","","2016_Nov_28_1109"
6,2,3,60,"C","2",1.77,"","banana","","2016_Nov_28_1109"
6,2,4,61,"Y","8",1.364,"plum","","","2016_Nov_28_1109"
6,2,4,62,"B","4",1.865,"","mango","","2016_Nov_28_1109"
6,2,4,63,"X","10",1.427,"","peach","","2016_Nov_28_1109"
6,2,4,64,"E","5",1.505,"kiwi","","","2016_Nov_28_1109"
6,2,4,65,"Z","3",2.146,"","cherry","","2016_Nov_28_1109"
6,2,4,66,"A","10",1.668,"apple","","","2016_Nov_28_1109"
6,2,4,67,"A","10",1.661,"","apple","","2016_Nov_28_1109"
6,2,4,68,"P","10",0.974,"pear","","","2016_Nov_28_1109"
6,2,4,69,"C","2",2.194,"","banana","","2016_Nov_28_1109"
6,2,4,70,"Q","10",4.569,"orange","","","2016_Nov_28_1109"
6,2,4,71,"B","8",4.492,"mango","","","2016_Nov_28_1109"
6,2,4,72,"Q","10",1.13,"","orange","","2016_Nov_28_1109"
6,2,4,73,"E","4",1.458,"","kiwi","","2016_Nov_28_1109"
6,2,4,74,"D","7",1.021,"strawberry","","","2016_Nov_28_1109"
6,2,4,75,"Y","10",1.224,"","plum","","2016_Nov_28_1109"
6,2,4,76,"Z","4",1.021,"cherry","","","2016_Nov_28_1109"
6,2,4,77,"P","10",1.366,"","pear","","2016_Nov_28_1109"
6,2,4,78,"C","2",1.102,"banana","","","2016_Nov_28_1109"
6,2,4,79,"X","10",1.974,"peach","","","2016_Nov_28_1109"
6,2,4,80,"D","7",1.773,"","strawberry","","2016_Nov_28_1109"
6,2,5,81,"Z","4",1.927,"cherry","","","2016_Nov_28_1109"
6,2,5,82,"Y","7",1.349,"","plum","","2016_Nov_28_1109"
6,2,5,83,"Y","7",1.443,"plum","","","2016_Nov_28_1109"
6,2,5,84,"P","10",1.255,"pear","","","2016_Nov_28_1109"
6,2,5,85,"A","10",1.005,"","apple","","2016_Nov_28_1109"
6,2,5,86,"E","5",1.43,"kiwi","","","2016_Nov_28_1109"
6,2,5,87,"Q","10",1.177,"orange","","","2016_Nov_28_1109"
6,2,5,88,"C","2",1.208,"","banana","","2016_Nov_28_1109"
6,2,5,89,"P","6",2.554,"","pear","","2016_Nov_28_1109"
6,2,5,90,"B","4",1.246,"","mango","","2016_Nov_28_1109"
6,2,5,91,"C","2",1.085,"banana","","","2016_Nov_28_1109"
6,2,5,92,"A","10",1.255,"apple","","","2016_Nov_28_1109"
6,2,5,93,"D","5",1.833,"","strawberry","","2016_Nov_28_1109"
6,2,5,94,"D","5",1.146,"strawberry","","","2016_Nov_28_1109"
6,2,5,95,"B","4",1.505,"mango","","","2016_Nov_28_1109"
6,2,5,96,"E","7",2.161,"","kiwi","","2016_Nov_28_1109"
6,2,5,97,"Z","6",1.599,"","cherry","","2016_Nov_28_1109"
6,2,5,98,"Q","10",1.552,"","orange","","2016_Nov_28_1109"
6,2,5,99,"X","10",1.505,"peach","","","2016_Nov_28_1109"
6,2,5,100,"X","10",0.85,"","peach","","2016_Nov_28_1109"
6,2,6,101,"Y","4",1.599,"plum","","","2016_Nov_28_1109"
6,2,6,102,"Q","10",1.429,"","orange","","2016_Nov_28_1109"
6,2,6,103,"X","10",1.023,"peach","","","2016_Nov_28_1109"
6,2,6,104,"X","10",0.724,"","peach","","2016_Nov_28_1109"
6,2,6,105,"C","2",1.319,"banana","","","2016_Nov_28_1109"
6,2,6,106,"C","2",0.958,"","banana","","2016_Nov_28_1109"
6,2,6,107,"E","6",1.334,"kiwi","","","2016_Nov_28_1109"
6,2,6,108,"B","4",1.208,"","mango","","2016_Nov_28_1109"
6,2,6,109,"Z","5",1.306,"","cherry","","2016_Nov_28_1109"
6,2,6,110,"D","4",4.005,"strawberry","","","2016_Nov_28_1109"
6,2,6,111,"A","10",1.138,"","apple","","2016_Nov_28_1109"
6,2,6,112,"A","10",0.911,"apple","","","2016_Nov_28_1109"
6,2,6,113,"D","4",1.896,"","strawberry","","2016_Nov_28_1109"
6,2,6,114,"E","5",2.411,"","kiwi","","2016_Nov_28_1109"
6,2,6,115,"P","10",3.943,"","pear","","2016_Nov_28_1109"
6,2,6,116,"B","5",2.083,"mango","","","2016_Nov_28_1109"
6,2,6,117,"Z","6",1.365,"cherry","","","2016_Nov_28_1109"
6,2,6,118,"Y","4",1.949,"","plum","","2016_Nov_28_1109"
6,2,6,119,"Q","10",1.583,"orange","","","2016_Nov_28_1109"
6,2,6,120,"P","7",1.239,"pear","","","2016_Nov_28_1109"
7,2,1,1,"P","8",9.209,"orange","","","2016_Nov_28_1246"
7,2,1,2,"C","3",3.474,"pear","","","2016_Nov_28_1246"
7,2,1,3,"D","2",2.304,"","apple","","2016_Nov_28_1246"
7,2,1,4,"Y","6",6.24,"","kiwi","","2016_Nov_28_1246"
7,2,1,5,"Q","0",3.927,"","mango","","2016_Nov_28_1246"
7,2,1,6,"B","7",3.849,"","plum","","2016_Nov_28_1246"
7,2,1,7,"A","10",5.505,"strawberry","","","2016_Nov_28_1246"
7,2,1,8,"A","10",0.945,"","strawberry","","2016_Nov_28_1246"
7,2,1,9,"E","1",4.177,"banana","","","2016_Nov_28_1246"
7,2,1,10,"X","2",2.083,"","peach","","2016_Nov_28_1246"
7,2,1,11,"C","0",2.601,"","pear","","2016_Nov_28_1246"
7,2,1,12,"E","1",4.302,"","banana","","2016_Nov_28_1246"
7,2,1,13,"Q","0",3.38,"mango","","","2016_Nov_28_1246"
7,2,1,14,"B","7",2.724,"plum","","","2016_Nov_28_1246"
7,2,1,15,"P","1",5.273,"","orange","","2016_Nov_28_1246"
7,2,1,16,"D","1",1.164,"apple","","","2016_Nov_28_1246"
7,2,1,17,"Y","7",3.101,"kiwi","","","2016_Nov_28_1246"
7,2,1,18,"Z","5",5.617,"cherry","","","2016_Nov_28_1246"
7,2,1,19,"X","1",3.099,"peach","","","2016_Nov_28_1246"
7,2,1,20,"Z","5",2.164,"","cherry","","2016_Nov_28_1246"
7,2,2,21,"C","0",3.412,"","pear","","2016_Nov_28_1246"
7,2,2,22,"E","7",2.068,"banana","","","2016_Nov_28_1246"
7,2,2,23,"P","0",2.054,"orange","","","2016_Nov_28_1246"
7,2,2,24,"Y","6",1.787,"","kiwi","","2016_Nov_28_1246"
7,2,2,25,"Z","1",7.421,"","cherry","","2016_Nov_28_1246"
7,2,2,26,"A","10",2.061,"strawberry","","","2016_Nov_28_1246"
7,2,2,27,"A","10",0.409,"","strawberry","","2016_Nov_28_1246"
7,2,2,28,"B","6",4.11,"","plum","","2016_Nov_28_1246"
7,2,2,29,"X","2",3.271,"","peach","","2016_Nov_28_1246"
7,2,2,30,"D","2",1.007,"apple","","","2016_Nov_28_1246"
7,2,2,31,"Q","0",1.787,"","mango","","2016_Nov_28_1246"
7,2,2,32,"Q","0",0.586,"mango","","","2016_Nov_28_1246"
7,2,2,33,"B","6",1.739,"plum","","","2016_Nov_28_1246"
7,2,2,34,"Z","2",5.662,"cherry","","","2016_Nov_28_1246"
7,2,2,35,"E","1",3.038,"","banana","","2016_Nov_28_1246"
7,2,2,36,"X","2",2.006,"peach","","","2016_Nov_28_1246"
7,2,2,37,"D","0",8.727,"","apple","","2016_Nov_28_1246"
7,2,2,38,"P","0",0.927,"","orange","","2016_Nov_28_1246"
7,2,2,39,"C","0",1.74,"pear","","","2016_Nov_28_1246"
7,2,2,40,"Y","1",10.943,"kiwi","","","2016_Nov_28_1246"
7,2,3,41,"A","10",1.786,"","strawberry","","2016_Nov_28_1246"
7,2,3,42,"Y","3",2.74,"kiwi","","","2016_Nov_28_1246"
7,2,3,43,"B","7",3.224,"plum","","","2016_Nov_28_1246"
7,2,3,44,"P","1",2.271,"","orange","","2016_Nov_28_1246"
7,2,3,45,"D","5",1.677,"","apple","","2016_Nov_28_1246"
7,2,3,46,"D","5",0.865,"apple","","","2016_Nov_28_1246"
7,2,3,47,"X","1",1.74,"peach","","","2016_Nov_28_1246"
7,2,3,48,"Q","0",1.804,"mango","","","2016_Nov_28_1246"
7,2,3,49,"Y","7",2.63,"","kiwi","","2016_Nov_28_1246"
7,2,3,50,"C","1",2.367,"pear","","","2016_Nov_28_1246"
7,2,3,51,"Q","0",1.224,"","mango","","2016_Nov_28_1246"
7,2,3,52,"P","0",0.974,"orange","","","2016_Nov_28_1246"
7,2,3,53,"E","2",1.927,"","banana","","2016_Nov_28_1246"
7,2,3,54,"Z","2",4.974,"","cherry","","2016_Nov_28_1246"
7,2,3,55,"X","1",2.491,"","peach","","2016_Nov_28_1246"
7,2,3,56,"E","2",2.635,"banana","","","2016_Nov_28_1246"
7,2,3,57,"C","5",3.101,"","pear","","2016_Nov_28_1246"
7,2,3,58,"Z","2",1.271,"cherry","","","2016_Nov_28_1246"
7,2,3,59,"A","10",1.568,"strawberry","","","2016_Nov_28_1246"
7,2,3,60,"B","6",1.398,"","plum","","2016_Nov_28_1246"
7,2,4,61,"Y","7",2.101,"","kiwi","","2016_Nov_28_1246"
7,2,4,62,"Q","0",1.333,"mango","","","2016_Nov_28_1246"
7,2,4,63,"P","0",0.569,"orange","","","2016_Nov_28_1246"
7,2,4,64,"P","0",0.695,"","orange","","2016_Nov_28_1246"
7,2,4,65,"E","2",4.034,"","banana","","2016_Nov_28_1246"
7,2,4,66,"B","5",1.646,"plum","","","2016_Nov_28_1246"
7,2,4,67,"Q","0",1.427,"","mango","","2016_Nov_28_1246"
7,2,4,68,"X","0",3.085,"peach","","","2016_Nov_28_1246"
7,2,4,69,"E","3",1.724,"banana","","","2016_Nov_28_1246"
7,2,4,70,"B","5",1.583,"","plum","","2016_Nov_28_1246"
7,2,4,71,"Z","5",1.239,"","cherry","","2016_Nov_28_1246"
7,2,4,72,"A","10",1.615,"","strawberry","","2016_Nov_28_1246"
7,2,4,73,"C","5",1.241,"","pear","","2016_Nov_28_1246"
7,2,4,74,"Z","3",1.523,"cherry","","","2016_Nov_28_1246"
7,2,4,75,"C","5",2.805,"pear","","","2016_Nov_28_1246"
7,2,4,76,"X","1",5.584,"","peach","","2016_Nov_28_1246"
7,2,4,77,"D","1",0.981,"apple","","","2016_Nov_28_1246"
7,2,4,78,"A","10",1.414,"strawberry","","","2016_Nov_28_1246"
7,2,4,79,"D","5",2.099,"","apple","","2016_Nov_28_1246"
7,2,4,80,"Y","7",2.052,"kiwi","","","2016_Nov_28_1246"
7,2,5,81,"Z","2",2.193,"","cherry","","2016_Nov_28_1246"
7,2,5,82,"P","0",1.208,"orange","","","2016_Nov_28_1246"
7,2,5,83,"Y","7",2.068,"","kiwi","","2016_Nov_28_1246"
7,2,5,84,"E","2",3.584,"","banana","","2016_Nov_28_1246"
7,2,5,85,"P","0",1.177,"","orange","","2016_Nov_28_1246"
7,2,5,86,"B","6",1.489,"plum","","","2016_Nov_28_1246"
7,2,5,87,"A","10",1.24,"","strawberry","","2016_Nov_28_1246"
7,2,5,88,"A","10",0.437,"strawberry","","","2016_Nov_28_1246"
7,2,5,89,"D","5",2.927,"","apple","","2016_Nov_28_1246"
7,2,5,90,"X","1",1.241,"","peach","","2016_Nov_28_1246"
7,2,5,91,"Z","5",1.507,"cherry","","","2016_Nov_28_1246"
7,2,5,92,"C","5",0.848,"pear","","","2016_Nov_28_1246"
7,2,5,93,"Q","0",1.209,"mango","","","2016_Nov_28_1246"
7,2,5,94,"E","8",9.709,"banana","","","2016_Nov_28_1246"
7,2,5,95,"Y","7",3.242,"kiwi","","","2016_Nov_28_1246"
7,2,5,96,"D","5",1.474,"apple","","","2016_Nov_28_1246"
7,2,5,97,"C","3",1.36,"","pear","","2016_Nov_28_1246"
7,2,5,98,"B","7",1.458,"","plum","","2016_Nov_28_1246"
7,2,5,99,"X","1",1.74,"peach","","","2016_Nov_28_1246"
7,2,5,100,"Q","0",1.177,"","mango","","2016_Nov_28_1246"
7,2,6,101,"Q","0",0.508,"mango","","","2016_Nov_28_1246"
7,2,6,102,"P","0",0.57,"","orange","","2016_Nov_28_1246"
7,2,6,103,"B","6",1.318,"","plum","","2016_Nov_28_1246"
7,2,6,104,"E","7",5.086,"banana","","","2016_Nov_28_1246"
7,2,6,105,"C","2",2.177,"","pear","","2016_Nov_28_1246"
7,2,6,106,"A","10",1.693,"","strawberry","","2016_Nov_28_1246"
7,2,6,107,"P","0",1.21,"orange","","","2016_Nov_28_1246"
7,2,6,108,"Z","3",1.411,"cherry","","","2016_Nov_28_1246"
7,2,6,109,"Y","7",1.866,"kiwi","","","2016_Nov_28_1246"
7,2,6,110,"A","10",1.083,"strawberry","","","2016_Nov_28_1246"
7,2,6,111,"Z","2",1.195,"","cherry","","2016_Nov_28_1246"
7,2,6,112,"Y","7",1.396,"","kiwi","","2016_Nov_28_1246"
7,2,6,113,"X","1",3.759,"peach","","","2016_Nov_28_1246"
7,2,6,114,"Q","0",1.036,"","mango","","2016_Nov_28_1246"
7,2,6,115,"D","5",1.474,"","apple","","2016_Nov_28_1246"
7,2,6,116,"E","7",1.63,"","banana","","2016_Nov_28_1246"
7,2,6,117,"B","7",2.615,"plum","","","2016_Nov_28_1246"
7,2,6,118,"X","1",1.62,"","peach","","2016_Nov_28_1246"
7,2,6,119,"C","3",4.445,"pear","","","2016_Nov_28_1246"
7,2,6,120,"D","3",0.927,"apple","","","2016_Nov_28_1246"
8,2,1,1,"B","8",5.104,"","cherry","","2016_Nov_28_1147"
8,2,1,2,"A","10",2.836,"","mango","","2016_Nov_28_1147"
8,2,1,3,"B","10",3.333,"cherry","","","2016_Nov_28_1147"
8,2,1,4,"C","0",1.804,"","kiwi","","2016_Nov_28_1147"
8,2,1,5,"P","6",2.71,"","pear","","2016_Nov_28_1147"
8,2,1,6,"Y","0",1.523,"","orange","","2016_Nov_28_1147"
8,2,1,7,"Y","0",0.989,"orange","","","2016_Nov_28_1147"
8,2,1,8,"Z","6",2.333,"strawberry","","","2016_Nov_28_1147"
8,2,1,9,"A","10",2.429,"mango","","","2016_Nov_28_1147"
8,2,1,10,"X","7",3.208,"","plum","","2016_Nov_28_1147"
8,2,1,11,"D","7",1.398,"","banana","","2016_Nov_28_1147"
8,2,1,12,"P","7",2.615,"pear","","","2016_Nov_28_1147"
8,2,1,13,"E","5",2.099,"","peach","","2016_Nov_28_1147"
8,2,1,14,"Q","7",1.349,"apple","","","2016_Nov_28_1147"
8,2,1,15,"D","7",0.898,"banana","","","2016_Nov_28_1147"
8,2,1,16,"C","0",1.475,"kiwi","","","2016_Nov_28_1147"
8,2,1,17,"X","6",2.224,"plum","","","2016_Nov_28_1147"
8,2,1,18,"E","6",1.652,"peach","","","2016_Nov_28_1147"
8,2,1,19,"Z","6",1.693,"","strawberry","","2016_Nov_28_1147"
8,2,1,20,"Q","6",1.036,"","apple","","2016_Nov_28_1147"
8,2,2,21,"Z","6",1.382,"strawberry","","","2016_Nov_28_1147"
8,2,2,22,"C","0",1.099,"kiwi","","","2016_Nov_28_1147"
8,2,2,23,"Z","6",1.646,"","strawberry","","2016_Nov_28_1147"
8,2,2,24,"B","8",1.474,"","cherry","","2016_Nov_28_1147"
8,2,2,25,"A","10",1.146,"mango","","","2016_Nov_28_1147"
8,2,2,26,"P","8",1.177,"pear","","","2016_Nov_28_1147"
8,2,2,27,"B","8",0.911,"cherry","","","2016_Nov_28_1147"
8,2,2,28,"X","8",1.927,"","plum","","2016_Nov_28_1147"
8,2,2,29,"D","7",2.226,"banana","","","2016_Nov_28_1147"
8,2,2,30,"Y","0",1.415,"","orange","","2016_Nov_28_1147"
8,2,2,31,"Q","7",3.302,"apple","","","2016_Nov_28_1147"
8,2,2,32,"C","0",1.411,"","kiwi","","2016_Nov_28_1147"
8,2,2,33,"X","6",1.427,"plum","","","2016_Nov_28_1147"
8,2,2,34,"E","6",1.161,"peach","","","2016_Nov_28_1147"
8,2,2,35,"P","8",1.427,"","pear","","2016_Nov_28_1147"
8,2,2,36,"Q","8",1.273,"","apple","","2016_Nov_28_1147"
8,2,2,37,"E","6",1.536,"","peach","","2016_Nov_28_1147"
8,2,2,38,"D","6",1.865,"","banana","","2016_Nov_28_1147"
8,2,2,39,"Y","0",1.646,"orange","","","2016_Nov_28_1147"
8,2,2,40,"A","10",1.755,"","mango","","2016_Nov_28_1147"
8,2,3,41,"C","0",1.114,"kiwi","","","2016_Nov_28_1147"
8,2,3,42,"P","6",1.505,"pear","","","2016_Nov_28_1147"
8,2,3,43,"Z","6",0.819,"strawberry","","","2016_Nov_28_1147"
8,2,3,44,"Q","6",0.757,"","apple","","2016_Nov_28_1147"
8,2,3,45,"E","6",1.13,"","peach","","2016_Nov_28_1147"
8,2,3,46,"B","6",0.989,"","cherry","","2016_Nov_28_1147"
8,2,3,47,"D","6",1.224,"","banana","","2016_Nov_28_1147"
8,2,3,48,"E","6",1.132,"peach","","","2016_Nov_28_1147"
8,2,3,49,"Y","6",2.193,"orange","","","2016_Nov_28_1147"
8,2,3,50,"A","10",1.24,"","mango","","2016_Nov_28_1147"
8,2,3,51,"X","7",1.708,"","plum","","2016_Nov_28_1147"
8,2,3,52,"Q","6",1.036,"apple","","","2016_Nov_28_1147"
8,2,3,53,"B","7",1.043,"cherry","","","2016_Nov_28_1147"
8,2,3,54,"P","7",0.974,"","pear","","2016_Nov_28_1147"
8,2,3,55,"X","7",1.257,"plum","","","2016_Nov_28_1147"
8,2,3,56,"D","7",1.536,"banana","","","2016_Nov_28_1147"
8,2,3,57,"Z","7",1.383,"","strawberry","","2016_Nov_28_1147"
8,2,3,58,"Y","6",1.961,"","orange","","2016_Nov_28_1147"
8,2,3,59,"A","10",1.349,"mango","","","2016_Nov_28_1147"
8,2,3,60,"C","0",1.239,"","kiwi","","2016_Nov_28_1147"
8,2,4,61,"A","10",1.474,"","mango","","2016_Nov_28_1147"
8,2,4,62,"Y","7",1.429,"orange","","","2016_Nov_28_1147"
8,2,4,63,"C","0",5.054,"kiwi","","","2016_Nov_28_1147"
8,2,4,64,"Q","6",1.489,"apple","","","2016_Nov_28_1147"
8,2,4,65,"D","6",0.927,"banana","","","2016_Nov_28_1147"
8,2,4,66,"P","6",1.116,"","pear","","2016_Nov_28_1147"
8,2,4,67,"C","0",1.349,"","kiwi","","2016_Nov_28_1147"
8,2,4,68,"B","7",1.992,"","cherry","","2016_Nov_28_1147"
8,2,4,69,"B","7",1.069,"cherry","","","2016_Nov_28_1147"
8,2,4,70,"E","7",1.036,"peach","","","2016_Nov_28_1147"
8,2,4,71,"X","7",0.757,"plum","","","2016_Nov_28_1147"
8,2,4,72,"D","7",0.989,"","banana","","2016_Nov_28_1147"
8,2,4,73,"X","7",0.695,"","plum","","2016_Nov_28_1147"
8,2,4,74,"Y","6",1.708,"","orange","","2016_Nov_28_1147"
8,2,4,75,"Z","6",1.052,"strawberry","","","2016_Nov_28_1147"
8,2,4,76,"Z","6",0.883,"","strawberry","","2016_Nov_28_1147"
8,2,4,77,"Q","6",1.007,"","apple","","2016_Nov_28_1147"
8,2,4,78,"P","6",1.302,"pear","","","2016_Nov_28_1147"
8,2,4,79,"A","10",1.661,"mango","","","2016_Nov_28_1147"
8,2,4,80,"E","6",1.693,"","peach","","2016_Nov_28_1147"
8,2,5,81,"Y","4",2.186,"orange","","","2016_Nov_28_1147"
8,2,5,82,"Z","7",1.646,"strawberry","","","2016_Nov_28_1147"
8,2,5,83,"P","7",0.864,"","pear","","2016_Nov_28_1147"
8,2,5,84,"C","0",1.138,"","kiwi","","2016_Nov_28_1147"
8,2,5,85,"Y","6",1.305,"","orange","","2016_Nov_28_1147"
8,2,5,86,"A","10",1.364,"mango","","","2016_Nov_28_1147"
8,2,5,87,"Z","7",1.052,"","strawberry","","2016_Nov_28_1147"
8,2,5,88,"A","10",1.255,"","mango","","2016_Nov_28_1147"
8,2,5,89,"C","0",2.023,"kiwi","","","2016_Nov_28_1147"
8,2,5,90,"E","7",2.694,"peach","","","2016_Nov_28_1147"
8,2,5,91,"P","7",2.257,"pear","","","2016_Nov_28_1147"
8,2,5,92,"Q","7",0.974,"","apple","","2016_Nov_28_1147"
8,2,5,93,"B","7",0.739,"cherry","","","2016_Nov_28_1147"
8,2,5,94,"X","7",0.802,"plum","","","2016_Nov_28_1147"
8,2,5,95,"Q","7",0.677,"apple","","","2016_Nov_28_1147"
8,2,5,96,"X","7",0.739,"","plum","","2016_Nov_28_1147"
8,2,5,97,"D","7",0.771,"banana","","","2016_Nov_28_1147"
8,2,5,98,"E","7",1.505,"","peach","","2016_Nov_28_1147"
8,2,5,99,"B","7",0.552,"","cherry","","2016_Nov_28_1147"
8,2,5,100,"D","7",0.739,"","banana","","2016_Nov_28_1147"
8,2,6,101,"C","0",1.49,"kiwi","","","2016_Nov_28_1147"
8,2,6,102,"X","6",1.052,"","plum","","2016_Nov_28_1147"
8,2,6,103,"D","6",0.739,"","banana","","2016_Nov_28_1147"
8,2,6,104,"Z","6",0.739,"","strawberry","","2016_Nov_28_1147"
8,2,6,105,"Q","6",0.693,"","apple","","2016_Nov_28_1147"
8,2,6,106,"Z","6",1.083,"strawberry","","","2016_Nov_28_1147"
8,2,6,107,"A","10",1.34,"","mango","","2016_Nov_28_1147"
8,2,6,108,"P","7",1.786,"","pear","","2016_Nov_28_1147"
8,2,6,109,"Q","7",1.302,"apple","","","2016_Nov_28_1147"
8,2,6,110,"E","7",1.161,"peach","","","2016_Nov_28_1147"
8,2,6,111,"C","0",1.134,"","kiwi","","2016_Nov_28_1147"
8,2,6,112,"B","7",2.306,"","cherry","","2016_Nov_28_1147"
8,2,6,113,"B","7",0.927,"cherry","","","2016_Nov_28_1147"
8,2,6,114,"D","7",0.927,"banana","","","2016_Nov_28_1147"
8,2,6,115,"P","7",0.677,"pear","","","2016_Nov_28_1147"
8,2,6,116,"A","10",1.177,"mango","","","2016_Nov_28_1147"
8,2,6,117,"E","6",1.34,"","peach","","2016_Nov_28_1147"
8,2,6,118,"Y","4",3.411,"orange","","","2016_Nov_28_1147"
8,2,6,119,"X","8",1.367,"plum","","","2016_Nov_28_1147"
8,2,6,120,"Y","4",2.099,"","orange","","2016_Nov_28_1147"
9,2,1,1,"E","5",7.413,"apple","","","2016_Nov_28_1323"
9,2,1,2,"A","10",1.632,"banana","","","2016_Nov_28_1323"
9,2,1,3,"Z","5",3.099,"strawberry","","","2016_Nov_28_1323"
9,2,1,4,"E","5",2.724,"","apple","","2016_Nov_28_1323"
9,2,1,5,"P","10",2.914,"","mango","","2016_Nov_28_1323"
9,2,1,6,"D","3",3.74,"cherry","","","2016_Nov_28_1323"
9,2,1,7,"X","10",1.427,"","orange","","2016_Nov_28_1323"
9,2,1,8,"B","10",3.974,"","peach","","2016_Nov_28_1323"
9,2,1,9,"Q","10",1.036,"","plum","","2016_Nov_28_1323"
9,2,1,10,"B","10",0.739,"peach","","","2016_Nov_28_1323"
9,2,1,11,"P","10",3.615,"mango","","","2016_Nov_28_1323"
9,2,1,12,"D","5",1.648,"","cherry","","2016_Nov_28_1323"
9,2,1,13,"Q","10",1.786,"plum","","","2016_Nov_28_1323"
9,2,1,14,"Z","5",5.49,"","strawberry","","2016_Nov_28_1323"
9,2,1,15,"C","0",1.864,"kiwi","","","2016_Nov_28_1323"
9,2,1,16,"A","10",1.818,"","banana","","2016_Nov_28_1323"
9,2,1,17,"C","0",2.599,"","kiwi","","2016_Nov_28_1323"
9,2,1,18,"Y","0",2.043,"pear","","","2016_Nov_28_1323"
9,2,1,19,"X","10",1.255,"orange","","","2016_Nov_28_1323"
9,2,1,20,"Y","0",1.349,"","pear","","2016_Nov_28_1323"
9,2,2,21,"Q","10",1.693,"plum","","","2016_Nov_28_1323"
9,2,2,22,"A","10",1.565,"","banana","","2016_Nov_28_1323"
9,2,2,23,"Y","0",2.065,"pear","","","2016_Nov_28_1323"
9,2,2,24,"X","10",1.518,"orange","","","2016_Nov_28_1323"
9,2,2,25,"B","10",2.678,"peach","","","2016_Nov_28_1323"
9,2,2,26,"D","5",2.461,"","cherry","","2016_Nov_28_1323"
9,2,2,27,"E","5",1.226,"","apple","","2016_Nov_28_1323"
9,2,2,28,"Q","10",1.693,"","plum","","2016_Nov_28_1323"
9,2,2,29,"B","10",1.741,"","peach","","2016_Nov_28_1323"
9,2,2,30,"P","10",2.845,"","mango","","2016_Nov_28_1323"
9,2,2,31,"P","10",0.677,"mango","","","2016_Nov_28_1323"
9,2,2,32,"X","10",1.193,"","orange","","2016_Nov_28_1323"
9,2,2,33,"Z","5",1.834,"strawberry","","","2016_Nov_28_1323"
9,2,2,34,"Z","5",1.226,"","strawberry","","2016_Nov_28_1323"
9,2,2,35,"E","5",1.005,"apple","","","2016_Nov_28_1323"
9,2,2,36,"A","10",1.806,"banana","","","2016_Nov_28_1323"
9,2,2,37,"C","0",1.052,"kiwi","","","2016_Nov_28_1323"
9,2,2,38,"C","0",0.427,"","kiwi","","2016_Nov_28_1323"
9,2,2,39,"D","5",1.226,"cherry","","","2016_Nov_28_1323"
9,2,2,40,"Y","0",1.755,"","pear","","2016_Nov_28_1323"
9,2,3,41,"P","10",1.349,"","mango","","2016_Nov_28_1323"
9,2,3,42,"B","10",0.632,"peach","","","2016_Nov_28_1323"
9,2,3,43,"Z","5",1.505,"","strawberry","","2016_Nov_28_1323"
9,2,3,44,"B","10",1.24,"","peach","","2016_Nov_28_1323"
9,2,3,45,"E","5",1.398,"apple","","","2016_Nov_28_1323"
9,2,3,46,"Y","0",2.458,"","pear","","2016_Nov_28_1323"
9,2,3,47,"D","5",2.07,"","cherry","","2016_Nov_28_1323"
9,2,3,48,"P","10",1.052,"mango","","","2016_Nov_28_1323"
9,2,3,49,"X","10",1.084,"orange","","","2016_Nov_28_1323"
9,2,3,50,"C","0",1.38,"kiwi","","","2016_Nov_28_1323"
9,2,3,51,"Q","10",1.286,"","plum","","2016_Nov_28_1323"
9,2,3,52,"D","5",1.068,"cherry","","","2016_Nov_28_1323"
9,2,3,53,"Y","0",1.427,"pear","","","2016_Nov_28_1323"
9,2,3,54,"E","5",1.599,"","apple","","2016_Nov_28_1323"
9,2,3,55,"A","10",1.35,"banana","","","2016_Nov_28_1323"
9,2,3,56,"A","10",0.583,"","banana","","2016_Nov_28_1323"
9,2,3,57,"C","0",1.177,"","kiwi","","2016_Nov_28_1323"
9,2,3,58,"X","10",1.302,"","orange","","2016_Nov_28_1323"
9,2,3,59,"Q","10",1.177,"plum","","","2016_Nov_28_1323"
9,2,3,60,"Z","5",1.005,"strawberry","","","2016_Nov_28_1323"
9,2,4,61,"Y","0",1.536,"","pear","","2016_Nov_28_1323"
9,2,4,62,"C","0",0.786,"","kiwi","","2016_Nov_28_1323"
9,2,4,63,"D","5",1.835,"cherry","","","2016_Nov_28_1323"
9,2,4,64,"B","10",0.786,"peach","","","2016_Nov_28_1323"
9,2,4,65,"C","0",1.398,"kiwi","","","2016_Nov_28_1323"
9,2,4,66,"Z","5",1.476,"strawberry","","","2016_Nov_28_1323"
9,2,4,67,"Q","10",0.992,"","plum","","2016_Nov_28_1323"
9,2,4,68,"D","10",0.82,"","cherry","","2016_Nov_28_1323"
9,2,4,69,"A","10",0.614,"banana","","","2016_Nov_28_1323"
9,2,4,70,"Y","10",0.614,"pear","","","2016_Nov_28_1323"
9,2,4,71,"E","10",2.085,"","apple","","2016_Nov_28_1323"
9,2,4,72,"Q","10",2.911,"plum","","","2016_Nov_28_1323"
9,2,4,73,"B","10",0.541,"","peach","","2016_Nov_28_1323"
9,2,4,74,"E","5",1.215,"apple","","","2016_Nov_28_1323"
9,2,4,75,"X","10",1.302,"","orange","","2016_Nov_28_1323"
9,2,4,76,"Z","5",3.193,"","strawberry","","2016_Nov_28_1323"
9,2,4,77,"X","10",1.24,"orange","","","2016_Nov_28_1323"
9,2,4,78,"A","10",0.942,"","banana","","2016_Nov_28_1323"
9,2,4,79,"P","10",0.68,"","mango","","2016_Nov_28_1323"
9,2,4,80,"P","10",0.757,"mango","","","2016_Nov_28_1323"
9,2,5,81,"Q","10",1.231,"","plum","","2016_Nov_28_1323"
9,2,5,82,"Y","0",1.115,"pear","","","2016_Nov_28_1323"
9,2,5,83,"Z","5",1.646,"strawberry","","","2016_Nov_28_1323"
9,2,5,84,"Y","0",1.411,"","pear","","2016_Nov_28_1323"
9,2,5,85,"A","10",1.38,"banana","","","2016_Nov_28_1323"
9,2,5,86,"D","5",1.802,"","cherry","","2016_Nov_28_1323"
9,2,5,87,"B","10",1.132,"","peach","","2016_Nov_28_1323"
9,2,5,88,"C","0",1.474,"kiwi","","","2016_Nov_28_1323"
9,2,5,89,"X","10",1.177,"orange","","","2016_Nov_28_1323"
9,2,5,90,"Z","5",1.725,"","strawberry","","2016_Nov_28_1323"
9,2,5,91,"B","10",2.318,"peach","","","2016_Nov_28_1323"
9,2,5,92,"A","10",0.615,"","banana","","2016_Nov_28_1323"
9,2,5,93,"P","10",0.506,"","mango","","2016_Nov_28_1323"
9,2,5,94,"D","5",1.411,"cherry","","","2016_Nov_28_1323"
9,2,5,95,"E","5",1.615,"","apple","","2016_Nov_28_1323"
9,2,5,96,"E","5",0.505,"apple","","","2016_Nov_28_1323"
9,2,5,97,"P","10",1.052,"mango","","","2016_Nov_28_1323"
9,2,5,98,"X","10",0.833,"","orange","","2016_Nov_28_1323"
9,2,5,99,"C","0",1.132,"","kiwi","","2016_Nov_28_1323"
9,2,5,100,"Q","10",1.943,"plum","","","2016_Nov_28_1323"
9,2,6,101,"X","10",1.023,"orange","","","2016_Nov_28_1323"
9,2,6,102,"A","10",1.164,"banana","","","2016_Nov_28_1323"
9,2,6,103,"D","5",1.036,"","cherry","","2016_Nov_28_1323"
9,2,6,104,"P","10",0.975,"","mango","","2016_Nov_28_1323"
9,2,6,105,"Y","0",1.599,"pear","","","2016_Nov_28_1323"
9,2,6,106,"X","10",1.099,"","orange","","2016_Nov_28_1323"
9,2,6,107,"B","10",0.898,"","peach","","2016_Nov_28_1323"
9,2,6,108,"Z","5",1.771,"","strawberry","","2016_Nov_28_1323"
9,2,6,109,"Y","0",1.068,"","pear","","2016_Nov_28_1323"
9,2,6,110,"B","10",1.145,"peach","","","2016_Nov_28_1323"
9,2,6,111,"P","10",0.489,"mango","","","2016_Nov_28_1323"
9,2,6,112,"Z","5",1.337,"strawberry","","","2016_Nov_28_1323"
9,2,6,113,"C","0",1.161,"kiwi","","","2016_Nov_28_1323"
9,2,6,114,"E","5",1.505,"","apple","","2016_Nov_28_1323"
9,2,6,115,"Q","10",1.958,"plum","","","2016_Nov_28_1323"
9,2,6,116,"E","5",1.554,"apple","","","2016_Nov_28_1323"
9,2,6,117,"D","5",3.349,"cherry","","","2016_Nov_28_1323"
9,2,6,118,"A","10",0.833,"","banana","","2016_Nov_28_1323"
9,2,6,119,"C","0",1.192,"","kiwi","","2016_Nov_28_1323"
9,2,6,120,"Q","10",2.396,"","plum","","2016_Nov_28_1323"
10,2,1,1,"E","5",5.616,"strawberry","","","2016_Nov_28_1225"
10,2,1,2,"D","6",4.333,"","pear","","2016_Nov_28_1225"
10,2,1,3,"Z","5",1.851,"","apple","","2016_Nov_28_1225"
10,2,1,4,"X","9",1.679,"","kiwi","","2016_Nov_28_1225"
10,2,1,5,"Q","10",1.396,"","plum","","2016_Nov_28_1225"
10,2,1,6,"X","9",4.945,"kiwi","","","2016_Nov_28_1225"
10,2,1,7,"C","1",2.133,"","peach","","2016_Nov_28_1225"
10,2,1,8,"C","0",1.762,"peach","","","2016_Nov_28_1225"
10,2,1,9,"B","10",3.911,"","orange","","2016_Nov_28_1225"
10,2,1,10,"P","10",2.02,"","cherry","","2016_Nov_28_1225"
10,2,1,11,"A","10",1.804,"banana","","","2016_Nov_28_1225"
10,2,1,12,"Y","0",1.614,"mango","","","2016_Nov_28_1225"
10,2,1,13,"E","5",1.958,"","strawberry","","2016_Nov_28_1225"
10,2,1,14,"Y","0",1.927,"","mango","","2016_Nov_28_1225"
10,2,1,15,"D","7",5.179,"pear","","","2016_Nov_28_1225"
10,2,1,16,"P","10",2.067,"cherry","","","2016_Nov_28_1225"
10,2,1,17,"B","10",1.413,"orange","","","2016_Nov_28_1225"
10,2,1,18,"A","10",1.802,"","banana","","2016_Nov_28_1225"
10,2,1,19,"Q","10",0.911,"plum","","","2016_Nov_28_1225"
10,2,1,20,"Z","5",1.38,"apple","","","2016_Nov_28_1225"
10,2,2,21,"Y","0",1.927,"","mango","","2016_Nov_28_1225"
10,2,2,22,"X","5",2.552,"","kiwi","","2016_Nov_28_1225"
10,2,2,23,"Z","5",0.632,"","apple","","2016_Nov_28_1225"
10,2,2,24,"Q","10",2.286,"","plum","","2016_Nov_28_1225"
10,2,2,25,"C","0",1.365,"peach","","","2016_Nov_28_1225"
10,2,2,26,"B","10",1.818,"orange","","","2016_Nov_28_1225"
10,2,2,27,"X","10",0.864,"kiwi","","","2016_Nov_28_1225"
10,2,2,28,"Z","5",1.927,"apple","","","2016_Nov_28_1225"
10,2,2,29,"D","5",1.557,"pear","","","2016_Nov_28_1225"
10,2,2,30,"C","0",2.005,"","peach","","2016_Nov_28_1225"
10,2,2,31,"E","5",1.255,"strawberry","","","2016_Nov_28_1225"
10,2,2,32,"P","10",1.395,"","cherry","","2016_Nov_28_1225"
10,2,2,33,"A","10",2.818,"","banana","","2016_Nov_28_1225"
10,2,2,34,"A","10",0.677,"banana","","","2016_Nov_28_1225"
10,2,2,35,"D","5",1.708,"","pear","","2016_Nov_28_1225"
10,2,2,36,"B","10",3.711,"","orange","","2016_Nov_28_1225"
10,2,2,37,"P","10",0.724,"cherry","","","2016_Nov_28_1225"
10,2,2,38,"Y","0",4.288,"mango","","","2016_Nov_28_1225"
10,2,2,39,"Q","10",1.307,"plum","","","2016_Nov_28_1225"
10,2,2,40,"E","0",1.474,"","strawberry","","2016_Nov_28_1225"
10,2,3,41,"X","5",2.161,"kiwi","","","2016_Nov_28_1225"
10,2,3,42,"B","10",1.958,"orange","","","2016_Nov_28_1225"
10,2,3,43,"D","5",1.052,"pear","","","2016_Nov_28_1225"
10,2,3,44,"D","5",0.677,"","pear","","2016_Nov_28_1225"
10,2,3,45,"P","10",1.161,"cherry","","","2016_Nov_28_1225"
10,2,3,46,"C","0",1.823,"peach","","","2016_Nov_28_1225"
10,2,3,47,"Q","10",1.239,"plum","","","2016_Nov_28_1225"
10,2,3,48,"B","10",1.741,"","orange","","2016_Nov_28_1225"
10,2,3,49,"X","5",1.663,"","kiwi","","2016_Nov_28_1225"
10,2,3,50,"Y","0",2.114,"","mango","","2016_Nov_28_1225"
10,2,3,51,"E","5",2.27,"strawberry","","","2016_Nov_28_1225"
10,2,3,52,"E","5",0.694,"","strawberry","","2016_Nov_28_1225"
10,2,3,53,"Y","0",1.302,"mango","","","2016_Nov_28_1225"
10,2,3,54,"Q","10",2.161,"","plum","","2016_Nov_28_1225"
10,2,3,55,"C","0",2.364,"","peach","","2016_Nov_28_1225"
10,2,3,56,"Z","5",2.114,"","apple","","2016_Nov_28_1225"
10,2,3,57,"P","10",1.458,"","cherry","","2016_Nov_28_1225"
10,2,3,58,"A","10",1.271,"banana","","","2016_Nov_28_1225"
10,2,3,59,"A","10",0.536,"","banana","","2016_Nov_28_1225"
10,2,3,60,"Z","5",1.43,"apple","","","2016_Nov_28_1225"
10,2,4,61,"X","5",0.773,"","kiwi","","2016_Nov_28_1225"
10,2,4,62,"C","0",1.755,"peach","","","2016_Nov_28_1225"
10,2,4,63,"P","10",3.208,"cherry","","","2016_Nov_28_1225"
10,2,4,64,"B","10",2.058,"","orange","","2016_Nov_28_1225"
10,2,4,65,"B","10",0.739,"orange","","","2016_Nov_28_1225"
10,2,4,66,"D","5",1.661,"","pear","","2016_Nov_28_1225"
10,2,4,67,"P","10",1.224,"","cherry","","2016_Nov_28_1225"
10,2,4,68,"A","10",1.036,"","banana","","2016_Nov_28_1225"
10,2,4,69,"D","5",1.161,"pear","","","2016_Nov_28_1225"
10,2,4,70,"E","5",0.945,"","strawberry","","2016_Nov_28_1225"
10,2,4,71,"Q","10",1.443,"","plum","","2016_Nov_28_1225"
10,2,4,72,"Y","0",1.351,"","mango","","2016_Nov_28_1225"
10,2,4,73,"A","10",2.099,"banana","","","2016_Nov_28_1225"
10,2,4,74,"C","0",1.194,"","peach","","2016_Nov_28_1225"
10,2,4,75,"Z","5",1.418,"","apple","","2016_Nov_28_1225"
10,2,4,76,"X","5",1.727,"kiwi","","","2016_Nov_28_1225"
10,2,4,77,"E","5",0.677,"strawberry","","","2016_Nov_28_1225"
10,2,4,78,"Q","10",1.366,"plum","","","2016_Nov_28_1225"
10,2,4,79,"Z","5",1.525,"apple","","","2016_Nov_28_1225"
10,2,4,80,"Y","0",1.793,"mango","","","2016_Nov_28_1225"
10,2,5,81,"A","10",1.648,"banana","","","2016_Nov_28_1225"
10,2,5,82,"A","10",0.552,"","banana","","2016_Nov_28_1225"
10,2,5,83,"C","0",2.678,"peach","","","2016_Nov_28_1225"
10,2,5,84,"C","0",0.882,"","peach","","2016_Nov_28_1225"
10,2,5,85,"Q","10",1.989,"plum","","","2016_Nov_28_1225"
10,2,5,86,"D","5",2.739,"pear","","","2016_Nov_28_1225"
10,2,5,87,"Y","0",5.708,"mango","","","2016_Nov_28_1225"
10,2,5,88,"Y","0",1.365,"","mango","","2016_Nov_28_1225"
10,2,5,89,"P","10",2.086,"cherry","","","2016_Nov_28_1225"
10,2,5,90,"Z","5",1.538,"apple","","","2016_Nov_28_1225"
10,2,5,91,"Q","10",1.02,"","plum","","2016_Nov_28_1225"
10,2,5,92,"X","5",1.287,"kiwi","","","2016_Nov_28_1225"
10,2,5,93,"P","10",1.302,"","cherry","","2016_Nov_28_1225"
10,2,5,94,"X","5",2.276,"","kiwi","","2016_Nov_28_1225"
10,2,5,95,"E","5",1.114,"strawberry","","","2016_Nov_28_1225"
10,2,5,96,"E","5",0.552,"","strawberry","","2016_Nov_28_1225"
10,2,5,97,"D","5",0.677,"","pear","","2016_Nov_28_1225"
10,2,5,98,"B","10",1.819,"","orange","","2016_Nov_28_1225"
10,2,5,99,"B","10",0.552,"orange","","","2016_Nov_28_1225"
10,2,5,100,"Z","5",1.996,"","apple","","2016_Nov_28_1225"
10,2,6,101,"C","0",1.88,"","peach","","2016_Nov_28_1225"
10,2,6,102,"E","5",1.411,"","strawberry","","2016_Nov_28_1225"
10,2,6,103,"A","10",2.224,"","banana","","2016_Nov_28_1225"
10,2,6,104,"Y","0",1.364,"mango","","","2016_Nov_28_1225"
10,2,6,105,"Z","5",1.554,"","apple","","2016_Nov_28_1225"
10,2,6,106,"Q","10",1.38,"plum","","","2016_Nov_28_1225"
10,2,6,107,"C","0",1.443,"peach","","","2016_Nov_28_1225"
10,2,6,108,"X","5",1.005,"","kiwi","","2016_Nov_28_1225"
10,2,6,109,"P","10",1.458,"","cherry","","2016_Nov_28_1225"
10,2,6,110,"A","10",1.538,"banana","","","2016_Nov_28_1225"
10,2,6,111,"Q","10",0.599,"","plum","","2016_Nov_28_1225"
10,2,6,112,"Z","5",2.208,"apple","","","2016_Nov_28_1225"
10,2,6,113,"B","10",3.039,"orange","","","2016_Nov_28_1225"
10,2,6,114,"E","5",1.927,"strawberry","","","2016_Nov_28_1225"
10,2,6,115,"X","5",0.802,"kiwi","","","2016_Nov_28_1225"
10,2,6,116,"D","5",0.677,"pear","","","2016_Nov_28_1225"
10,2,6,117,"D","5",0.802,"","pear","","2016_Nov_28_1225"
10,2,6,118,"B","10",2.118,"","orange","","2016_Nov_28_1225"
10,2,6,119,"P","10",2.911,"cherry","","","2016_Nov_28_1225"
10,2,6,120,"Y","0",1.794,"","mango","","2016_Nov_28_1225"
11,2,1,1,"A","10",2.195,"orange","","","2016_Nov_28_1447"
11,2,1,2,"A","10",2.437,"","orange","","2016_Nov_28_1447"
11,2,1,3,"X","10",5.633,"pear","","","2016_Nov_28_1447"
11,2,1,4,"D","5",3.338,"","plum","","2016_Nov_28_1447"
11,2,1,5,"D","5",0.974,"plum","","","2016_Nov_28_1447"
11,2,1,6,"P","10",4.835,"kiwi","","","2016_Nov_28_1447"
11,2,1,7,"Y","2",14.111,"","mango","","2016_Nov_28_1447"
11,2,1,8,"X","10",5.818,"","pear","","2016_Nov_28_1447"
11,2,1,9,"Z","5",4.474,"peach","","","2016_Nov_28_1447"
11,2,1,10,"P","10",2.458,"","kiwi","","2016_Nov_28_1447"
11,2,1,11,"E","5",1.585,"","banana","","2016_Nov_28_1447"
11,2,1,12,"Q","10",1.93,"","apple","","2016_Nov_28_1447"
11,2,1,13,"Z","5",3.476,"","peach","","2016_Nov_28_1447"
11,2,1,14,"Q","10",1.915,"apple","","","2016_Nov_28_1447"
11,2,1,15,"E","5",1.195,"banana","","","2016_Nov_28_1447"
11,2,1,16,"C","7",6.163,"","cherry","","2016_Nov_28_1447"
11,2,1,17,"Y","4",4.932,"mango","","","2016_Nov_28_1447"
11,2,1,18,"B","8",5.731,"","strawberry","","2016_Nov_28_1447"
11,2,1,19,"B","5",8.818,"strawberry","","","2016_Nov_28_1447"
11,2,1,20,"C","2",7.336,"cherry","","","2016_Nov_28_1447"
11,2,2,21,"C","2",1.302,"cherry","","","2016_Nov_28_1447"
11,2,2,22,"E","5",3.99,"","banana","","2016_Nov_28_1447"
11,2,2,23,"E","5",0.929,"banana","","","2016_Nov_28_1447"
11,2,2,24,"P","10",1.695,"kiwi","","","2016_Nov_28_1447"
11,2,2,25,"D","5",2.444,"","plum","","2016_Nov_28_1447"
11,2,2,26,"Q","10",8.146,"","apple","","2016_Nov_28_1447"
11,2,2,27,"B","4",4.741,"strawberry","","","2016_Nov_28_1447"
11,2,2,28,"A","10",5.662,"","orange","","2016_Nov_28_1447"
11,2,2,29,"B","8",3.974,"","strawberry","","2016_Nov_28_1447"
11,2,2,30,"Z","6",6.418,"","peach","","2016_Nov_28_1447"
11,2,2,31,"C","7",7.103,"","cherry","","2016_Nov_28_1447"
11,2,2,32,"A","10",1.179,"orange","","","2016_Nov_28_1447"
11,2,2,33,"Y","4",19.719,"mango","","","2016_Nov_28_1447"
11,2,2,34,"X","10",5.103,"","pear","","2016_Nov_28_1447"
11,2,2,35,"Y","1",3.477,"","mango","","2016_Nov_28_1447"
11,2,2,36,"D","5",1.88,"plum","","","2016_Nov_28_1447"
11,2,2,37,"Z","5",0.945,"peach","","","2016_Nov_28_1447"
11,2,2,38,"X","10",1.788,"pear","","","2016_Nov_28_1447"
11,2,2,39,"Q","10",10.325,"apple","","","2016_Nov_28_1447"
11,2,2,40,"P","10",0.739,"","kiwi","","2016_Nov_28_1447"
11,2,3,41,"Y","2",4.24,"","mango","","2016_Nov_28_1447"
11,2,3,42,"A","10",1.458,"","orange","","2016_Nov_28_1447"
11,2,3,43,"B","7",2.755,"","strawberry","","2016_Nov_28_1447"
11,2,3,44,"C","1",1.786,"cherry","","","2016_Nov_28_1447"
11,2,3,45,"X","10",1.976,"","pear","","2016_Nov_28_1447"
11,2,3,46,"A","10",1.903,"orange","","","2016_Nov_28_1447"
11,2,3,47,"E","5",5.419,"banana","","","2016_Nov_28_1447"
11,2,3,48,"D","5",0.88,"plum","","","2016_Nov_28_1447"
11,2,3,49,"P","10",1.239,"","kiwi","","2016_Nov_28_1447"
11,2,3,50,"C","6",4.24,"","cherry","","2016_Nov_28_1447"
11,2,3,51,"P","10",1.677,"kiwi","","","2016_Nov_28_1447"
11,2,3,52,"Q","7",7.23,"apple","","","2016_Nov_28_1447"
11,2,3,53,"B","8",1.227,"strawberry","","","2016_Nov_28_1447"
11,2,3,54,"Z","5",1.661,"peach","","","2016_Nov_28_1447"
11,2,3,55,"X","10",5.463,"pear","","","2016_Nov_28_1447"
11,2,3,56,"Q","7",5.445,"","apple","","2016_Nov_28_1447"
11,2,3,57,"Z","5",1.193,"","peach","","2016_Nov_28_1447"
11,2,3,58,"D","5",0.739,"","plum","","2016_Nov_28_1447"
11,2,3,59,"E","5",1.63,"","banana","","2016_Nov_28_1447"
11,2,3,60,"Y","4",7.427,"mango","","","2016_Nov_28_1447"
11,2,4,61,"B","8",2.774,"strawberry","","","2016_Nov_28_1447"
11,2,4,62,"A","10",1.911,"","orange","","2016_Nov_28_1447"
11,2,4,63,"E","5",1.708,"banana","","","2016_Nov_28_1447"
11,2,4,64,"C","6",7.744,"","cherry","","2016_Nov_28_1447"
11,2,4,65,"X","10",1.224,"pear","","","2016_Nov_28_1447"
11,2,4,66,"E","5",1.943,"","banana","","2016_Nov_28_1447"
11,2,4,67,"Z","5",1.302,"","peach","","2016_Nov_28_1447"
11,2,4,68,"Y","2",3.958,"","mango","","2016_Nov_28_1447"
11,2,4,69,"Y","8",1.573,"mango","","","2016_Nov_28_1447"
11,2,4,70,"P","10",1.335,"kiwi","","","2016_Nov_28_1447"
11,2,4,71,"D","5",1.255,"plum","","","2016_Nov_28_1447"
11,2,4,72,"Q","8",15.056,"","apple","","2016_Nov_28_1447"
11,2,4,73,"A","10",1.521,"orange","","","2016_Nov_28_1447"
11,2,4,74,"Q","8",1.648,"apple","","","2016_Nov_28_1447"
11,2,4,75,"Z","5",1.149,"peach","","","2016_Nov_28_1447"
11,2,4,76,"D","5",0.865,"","plum","","2016_Nov_28_1447"
11,2,4,77,"B","8",2.477,"","strawberry","","2016_Nov_28_1447"
11,2,4,78,"X","10",1.537,"","pear","","2016_Nov_28_1447"
11,2,4,79,"P","10",1.52,"","kiwi","","2016_Nov_28_1447"
11,2,4,80,"C","2",2.833,"cherry","","","2016_Nov_28_1447"
11,2,5,81,"B","10",2.521,"","strawberry","","2016_Nov_28_1447"
11,2,5,82,"X","10",0.694,"pear","","","2016_Nov_28_1447"
11,2,5,83,"Z","5",3.054,"","peach","","2016_Nov_28_1447"
11,2,5,84,"C","7",1.615,"","cherry","","2016_Nov_28_1447"
11,2,5,85,"Q","8",5.508,"","apple","","2016_Nov_28_1447"
11,2,5,86,"D","5",1.226,"","plum","","2016_Nov_28_1447"
11,2,5,87,"Z","5",0.82,"peach","","","2016_Nov_28_1447"
11,2,5,88,"X","10",1.461,"","pear","","2016_Nov_28_1447"
11,2,5,89,"A","10",1.74,"orange","","","2016_Nov_28_1447"
11,2,5,90,"B","8",3.803,"strawberry","","","2016_Nov_28_1447"
11,2,5,91,"P","8",2.208,"","kiwi","","2016_Nov_28_1447"
11,2,5,92,"E","5",2.583,"","banana","","2016_Nov_28_1447"
11,2,5,93,"D","5",0.928,"plum","","","2016_Nov_28_1447"
11,2,5,94,"E","5",0.864,"banana","","","2016_Nov_28_1447"
11,2,5,95,"Y","2",3.011,"","mango","","2016_Nov_28_1447"
11,2,5,96,"C","1",1.974,"cherry","","","2016_Nov_28_1447"
11,2,5,97,"A","10",1.148,"","orange","","2016_Nov_28_1447"
11,2,5,98,"P","9",1.255,"kiwi","","","2016_Nov_28_1447"
11,2,5,99,"Q","8",1.335,"apple","","","2016_Nov_28_1447"
11,2,5,100,"Y","7",2.571,"mango","","","2016_Nov_28_1447"
11,2,6,101,"D","5",1.492,"plum","","","2016_Nov_28_1447"
11,2,6,102,"E","5",0.695,"banana","","","2016_Nov_28_1447"
11,2,6,103,"C","2",2.914,"cherry","","","2016_Nov_28_1447"
11,2,6,104,"Q","8",1.52,"apple","","","2016_Nov_28_1447"
11,2,6,105,"D","5",1.083,"","plum","","2016_Nov_28_1447"
11,2,6,106,"Q","8",1.43,"","apple","","2016_Nov_28_1447"
11,2,6,107,"A","10",1.524,"","orange","","2016_Nov_28_1447"
11,2,6,108,"X","10",1.101,"pear","","","2016_Nov_28_1447"
11,2,6,109,"B","8",2.786,"strawberry","","","2016_Nov_28_1447"
11,2,6,110,"X","10",1.169,"","pear","","2016_Nov_28_1447"
11,2,6,111,"E","5",1.382,"","banana","","2016_Nov_28_1447"
11,2,6,112,"Z","5",0.802,"","peach","","2016_Nov_28_1447"
11,2,6,113,"A","10",1.474,"orange","","","2016_Nov_28_1447"
11,2,6,114,"Y","2",6.534,"","mango","","2016_Nov_28_1447"
11,2,6,115,"P","8",4.365,"kiwi","","","2016_Nov_28_1447"
11,2,6,116,"B","8",1.286,"","strawberry","","2016_Nov_28_1447"
11,2,6,117,"C","4",1.786,"","cherry","","2016_Nov_28_1447"
11,2,6,118,"Y","7",2.45,"mango","","","2016_Nov_28_1447"
11,2,6,119,"Z","5",1.263,"peach","","","2016_Nov_28_1447"
11,2,6,120,"P","7",1.63,"","kiwi","","2016_Nov_28_1447"
12,2,1,1,"C","3",13.469,"","mango","","2016_Nov_28_1348"
12,2,1,2,"C","3",4.724,"mango","","","2016_Nov_28_1348"
12,2,1,3,"E","6",12.916,"","orange","","2016_Nov_28_1348"
12,2,1,4,"P","9",3.336,"banana","","","2016_Nov_28_1348"
12,2,1,5,"Y","4",2.568,"","peach","","2016_Nov_28_1348"
12,2,1,6,"X","8",2.708,"","strawberry","","2016_Nov_28_1348"
12,2,1,7,"E","4",2.24,"orange","","","2016_Nov_28_1348"
12,2,1,8,"B","8",1.942,"cherry","","","2016_Nov_28_1348"
12,2,1,9,"B","8",1.195,"","cherry","","2016_Nov_28_1348"
12,2,1,10,"Q","9",1.363,"apple","","","2016_Nov_28_1348"
12,2,1,11,"A","10",2.381,"pear","","","2016_Nov_28_1348"
12,2,1,12,"D","8",1.661,"kiwi","","","2016_Nov_28_1348"
12,2,1,13,"Z","5",1.726,"plum","","","2016_Nov_28_1348"
12,2,1,14,"A","10",2.484,"","pear","","2016_Nov_28_1348"
12,2,1,15,"X","8",1.458,"strawberry","","","2016_Nov_28_1348"
12,2,1,16,"Q","8",1.835,"","apple","","2016_Nov_28_1348"
12,2,1,17,"Z","7",2.24,"","plum","","2016_Nov_28_1348"
12,2,1,18,"D","8",1.334,"","kiwi","","2016_Nov_28_1348"
12,2,1,19,"Y","4",3.036,"peach","","","2016_Nov_28_1348"
12,2,1,20,"P","8",1.458,"","banana","","2016_Nov_28_1348"
12,2,2,21,"D","7",2.521,"kiwi","","","2016_Nov_28_1348"
12,2,2,22,"C","3",1.913,"","mango","","2016_Nov_28_1348"
12,2,2,23,"Q","8",2.286,"apple","","","2016_Nov_28_1348"
12,2,2,24,"P","8",2.177,"banana","","","2016_Nov_28_1348"
12,2,2,25,"E","8",2.257,"orange","","","2016_Nov_28_1348"
12,2,2,26,"B","8",0.927,"","cherry","","2016_Nov_28_1348"
12,2,2,27,"X","8",2.909,"strawberry","","","2016_Nov_28_1348"
12,2,2,28,"Z","5",1.319,"plum","","","2016_Nov_28_1348"
12,2,2,29,"Q","8",1.646,"","apple","","2016_Nov_28_1348"
12,2,2,30,"E","8",0.927,"","orange","","2016_Nov_28_1348"
12,2,2,31,"X","8",2.273,"","strawberry","","2016_Nov_28_1348"
12,2,2,32,"B","8",2.427,"cherry","","","2016_Nov_28_1348"
12,2,2,33,"D","9",0.992,"","kiwi","","2016_Nov_28_1348"
12,2,2,34,"Y","3",1.411,"peach","","","2016_Nov_28_1348"
12,2,2,35,"C","3",0.82,"mango","","","2016_Nov_28_1348"
12,2,2,36,"Y","3",0.741,"","peach","","2016_Nov_28_1348"
12,2,2,37,"A","10",1.771,"","pear","","2016_Nov_28_1348"
12,2,2,38,"P","8",1.255,"","banana","","2016_Nov_28_1348"
12,2,2,39,"Z","7",2.054,"","plum","","2016_Nov_28_1348"
12,2,2,40,"A","8",1.286,"pear","","","2016_Nov_28_1348"
12,2,3,41,"B","8",3.632,"","cherry","","2016_Nov_28_1348"
12,2,3,42,"D","8",0.757,"kiwi","","","2016_Nov_28_1348"
12,2,3,43,"Y","8",0.677,"peach","","","2016_Nov_28_1348"
12,2,3,44,"Z","7",2.911,"","plum","","2016_Nov_28_1348"
12,2,3,45,"Z","6",1.052,"plum","","","2016_Nov_28_1348"
12,2,3,46,"P","8",2.115,"","banana","","2016_Nov_28_1348"
12,2,3,47,"A","8",0.677,"","pear","","2016_Nov_28_1348"
12,2,3,48,"E","8",1.349,"orange","","","2016_Nov_28_1348"
12,2,3,49,"Q","8",0.632,"apple","","","2016_Nov_28_1348"
12,2,3,50,"C","3",1.974,"","mango","","2016_Nov_28_1348"
12,2,3,51,"C","3",0.864,"mango","","","2016_Nov_28_1348"
12,2,3,52,"B","7",1.708,"cherry","","","2016_Nov_28_1348"
12,2,3,53,"Q","8",5.552,"","apple","","2016_Nov_28_1348"
12,2,3,54,"P","8",0.989,"banana","","","2016_Nov_28_1348"
12,2,3,55,"X","9",1.208,"","strawberry","","2016_Nov_28_1348"
12,2,3,56,"X","9",0.958,"strawberry","","","2016_Nov_28_1348"
12,2,3,57,"E","9",0.836,"","orange","","2016_Nov_28_1348"
12,2,3,58,"Y","2",2.07,"","peach","","2016_Nov_28_1348"
12,2,3,59,"A","10",1.806,"pear","","","2016_Nov_28_1348"
12,2,3,60,"D","6",2.442,"","kiwi","","2016_Nov_28_1348"
12,2,4,61,"P","8",1.242,"","banana","","2016_Nov_28_1348"
12,2,4,62,"A","10",1.208,"pear","","","2016_Nov_28_1348"
12,2,4,63,"B","6",2.305,"cherry","","","2016_Nov_28_1348"
12,2,4,64,"C","3",2.114,"mango","","","2016_Nov_28_1348"
12,2,4,65,"Q","6",2.208,"","apple","","2016_Nov_28_1348"
12,2,4,66,"E","8",2.007,"","orange","","2016_Nov_28_1348"
12,2,4,67,"Z","6",2.161,"","plum","","2016_Nov_28_1348"
12,2,4,68,"D","8",1.943,"kiwi","","","2016_Nov_28_1348"
12,2,4,69,"Y","3",1.914,"","peach","","2016_Nov_28_1348"
12,2,4,70,"Q","3",4.335,"apple","","","2016_Nov_28_1348"
12,2,4,71,"P","7",4.427,"banana","","","2016_Nov_28_1348"
12,2,4,72,"C","3",2.333,"","mango","","2016_Nov_28_1348"
12,2,4,73,"X","3",2.552,"","strawberry","","2016_Nov_28_1348"
12,2,4,74,"B","7",2.036,"","cherry","","2016_Nov_28_1348"
12,2,4,75,"E","7",1.226,"orange","","","2016_Nov_28_1348"
12,2,4,76,"Y","3",1.99,"peach","","","2016_Nov_28_1348"
12,2,4,77,"Z","5",2.007,"plum","","","2016_Nov_28_1348"
12,2,4,78,"A","10",1.552,"","pear","","2016_Nov_28_1348"
12,2,4,79,"D","3",3.757,"","kiwi","","2016_Nov_28_1348"
12,2,4,80,"X","7",1.507,"strawberry","","","2016_Nov_28_1348"
12,2,5,81,"P","8",2.005,"banana","","","2016_Nov_28_1348"
12,2,5,82,"A","10",4.943,"","pear","","2016_Nov_28_1348"
12,2,5,83,"Y","3",1.724,"","peach","","2016_Nov_28_1348"
12,2,5,84,"C","3",1.114,"","mango","","2016_Nov_28_1348"
12,2,5,85,"E","3",1.302,"","orange","","2016_Nov_28_1348"
12,2,5,86,"B","8",2.983,"cherry","","","2016_Nov_28_1348"
12,2,5,87,"A","10",1.27,"pear","","","2016_Nov_28_1348"
12,2,5,88,"X","4",2.271,"strawberry","","","2016_Nov_28_1348"
12,2,5,89,"Z","7",6.739,"","plum","","2016_Nov_28_1348"
12,2,5,90,"C","3",3.021,"mango","","","2016_Nov_28_1348"
12,2,5,91,"X","7",1.665,"","strawberry","","2016_Nov_28_1348"
12,2,5,92,"D","8",2.38,"","kiwi","","2016_Nov_28_1348"
12,2,5,93,"Q","8",1.944,"apple","","","2016_Nov_28_1348"
12,2,5,94,"Q","8",1.945,"","apple","","2016_Nov_28_1348"
12,2,5,95,"P","8",15.037,"","banana","","2016_Nov_28_1348"
12,2,5,96,"B","8",0.883,"","cherry","","2016_Nov_28_1348"
12,2,5,97,"Y","3",1.661,"peach","","","2016_Nov_28_1348"
12,2,5,98,"D","8",1.226,"kiwi","","","2016_Nov_28_1348"
12,2,5,99,"E","8",1.193,"orange","","","2016_Nov_28_1348"
12,2,5,100,"Z","8",0.617,"plum","","","2016_Nov_28_1348"
12,2,6,101,"Q","8",0.569,"","apple","","2016_Nov_28_1348"
12,2,6,102,"A","8",1.239,"","pear","","2016_Nov_28_1348"
12,2,6,103,"D","8",1.333,"kiwi","","","2016_Nov_28_1348"
12,2,6,104,"Z","6",1.802,"","plum","","2016_Nov_28_1348"
12,2,6,105,"C","3",1.694,"mango","","","2016_Nov_28_1348"
12,2,6,106,"Q","7",5.807,"apple","","","2016_Nov_28_1348"
12,2,6,107,"A","10",1.38,"pear","","","2016_Nov_28_1348"
12,2,6,108,"B","9",2.226,"cherry","","","2016_Nov_28_1348"
12,2,6,109,"C","3",2.62,"","mango","","2016_Nov_28_1348"
12,2,6,110,"P","8",1.351,"","banana","","2016_Nov_28_1348"
12,2,6,111,"Z","6",2.179,"plum","","","2016_Nov_28_1348"
12,2,6,112,"X","7",1.583,"strawberry","","","2016_Nov_28_1348"
12,2,6,113,"X","7",0.833,"","strawberry","","2016_Nov_28_1348"
12,2,6,114,"E","7",1.302,"","orange","","2016_Nov_28_1348"
12,2,6,115,"P","8",1.396,"banana","","","2016_Nov_28_1348"
12,2,6,116,"E","6",1.804,"orange","","","2016_Nov_28_1348"
12,2,6,117,"Y","3",1.679,"","peach","","2016_Nov_28_1348"
12,2,6,118,"D","7",4.224,"","kiwi","","2016_Nov_28_1348"
12,2,6,119,"Y","3",2.569,"peach","","","2016_Nov_28_1348"
12,2,6,120,"B","8",5.302,"","cherry","","2016_Nov_28_1348"
13,2,1,1,"Z","5",10.165,"","cherry","","2016_Nov_28_1536"
13,2,1,2,"E","1",4.209,"kiwi","","","2016_Nov_28_1536"
13,2,1,3,"Y","10",4.583,"apple","","","2016_Nov_28_1536"
13,2,1,4,"B","7",5.177,"orange","","","2016_Nov_28_1536"
13,2,1,5,"E","1",2.036,"","kiwi","","2016_Nov_28_1536"
13,2,1,6,"X","9",2.083,"","peach","","2016_Nov_28_1536"
13,2,1,7,"A","10",2.177,"","mango","","2016_Nov_28_1536"
13,2,1,8,"D","5",2.633,"","banana","","2016_Nov_28_1536"
13,2,1,9,"Z","5",0.927,"cherry","","","2016_Nov_28_1536"
13,2,1,10,"Y","1",5.834,"","apple","","2016_Nov_28_1536"
13,2,1,11,"C","1",1.114,"pear","","","2016_Nov_28_1536"
13,2,1,12,"C","1",1.365,"","pear","","2016_Nov_28_1536"
13,2,1,13,"Q","6",3.943,"","plum","","2016_Nov_28_1536"
13,2,1,14,"P","10",2.898,"","strawberry","","2016_Nov_28_1536"
13,2,1,15,"A","10",1.568,"mango","","","2016_Nov_28_1536"
13,2,1,16,"P","10",1.927,"strawberry","","","2016_Nov_28_1536"
13,2,1,17,"D","5",1.412,"banana","","","2016_Nov_28_1536"
13,2,1,18,"X","9",2.161,"peach","","","2016_Nov_28_1536"
13,2,1,19,"Q","9",0.882,"plum","","","2016_Nov_28_1536"
13,2,1,20,"B","6",3.302,"","orange","","2016_Nov_28_1536"
13,2,2,21,"X","9",1.427,"peach","","","2016_Nov_28_1536"
13,2,2,22,"P","10",1.661,"strawberry","","","2016_Nov_28_1536"
13,2,2,23,"Q","10",0.804,"plum","","","2016_Nov_28_1536"
13,2,2,24,"E","1",1.398,"","kiwi","","2016_Nov_28_1536"
13,2,2,25,"A","10",1.771,"mango","","","2016_Nov_28_1536"
13,2,2,26,"X","9",0.927,"","peach","","2016_Nov_28_1536"
13,2,2,27,"B","7",1.6,"","orange","","2016_Nov_28_1536"
13,2,2,28,"Z","2",1.943,"","cherry","","2016_Nov_28_1536"
13,2,2,29,"D","2",0.864,"banana","","","2016_Nov_28_1536"
13,2,2,30,"D","2",0.786,"","banana","","2016_Nov_28_1536"
13,2,2,31,"C","1",2.163,"","pear","","2016_Nov_28_1536"
13,2,2,32,"P","9",2.539,"","strawberry","","2016_Nov_28_1536"
13,2,2,33,"A","10",1.537,"","mango","","2016_Nov_28_1536"
13,2,2,34,"Q","9",1.521,"","plum","","2016_Nov_28_1536"
13,2,2,35,"B","6",3.568,"orange","","","2016_Nov_28_1536"
13,2,2,36,"E","1",1.599,"kiwi","","","2016_Nov_28_1536"
13,2,2,37,"Y","1",1.911,"","apple","","2016_Nov_28_1536"
13,2,2,38,"Y","1",0.444,"apple","","","2016_Nov_28_1536"
13,2,2,39,"C","1",0.569,"pear","","","2016_Nov_28_1536"
13,2,2,40,"Z","1",1.007,"cherry","","","2016_Nov_28_1536"
13,2,3,41,"Y","1",0.677,"apple","","","2016_Nov_28_1536"
13,2,3,42,"Q","9",1.24,"plum","","","2016_Nov_28_1536"
13,2,3,43,"P","9",0.569,"strawberry","","","2016_Nov_28_1536"
13,2,3,44,"Z","2",1.318,"cherry","","","2016_Nov_28_1536"
13,2,3,45,"C","1",3.304,"pear","","","2016_Nov_28_1536"
13,2,3,46,"E","1",0.677,"","kiwi","","2016_Nov_28_1536"
13,2,3,47,"D","3",1.411,"banana","","","2016_Nov_28_1536"
13,2,3,48,"Y","1",2.724,"","apple","","2016_Nov_28_1536"
13,2,3,49,"D","3",1.552,"","banana","","2016_Nov_28_1536"
13,2,3,50,"X","9",1.552,"peach","","","2016_Nov_28_1536"
13,2,3,51,"Q","9",1.099,"","plum","","2016_Nov_28_1536"
13,2,3,52,"A","10",0.989,"mango","","","2016_Nov_28_1536"
13,2,3,53,"C","1",1.364,"","pear","","2016_Nov_28_1536"
13,2,3,54,"A","10",1.114,"","mango","","2016_Nov_28_1536"
13,2,3,55,"E","1",1.13,"kiwi","","","2016_Nov_28_1536"
13,2,3,56,"B","5",1.038,"","orange","","2016_Nov_28_1536"
13,2,3,57,"B","5",0.804,"orange","","","2016_Nov_28_1536"
13,2,3,58,"P","9",1.63,"","strawberry","","2016_Nov_28_1536"
13,2,3,59,"X","9",1.052,"","peach","","2016_Nov_28_1536"
13,2,3,60,"Z","3",2.43,"","cherry","","2016_Nov_28_1536"
13,2,4,61,"C","1",1.807,"","pear","","2016_Nov_28_1536"
13,2,4,62,"E","1",1.63,"","kiwi","","2016_Nov_28_1536"
13,2,4,63,"A","10",1.099,"","mango","","2016_Nov_28_1536"
13,2,4,64,"B","6",0.943,"orange","","","2016_Nov_28_1536"
13,2,4,65,"Y","1",1.239,"","apple","","2016_Nov_28_1536"
13,2,4,66,"C","1",0.615,"pear","","","2016_Nov_28_1536"
13,2,4,67,"P","9",1.177,"strawberry","","","2016_Nov_28_1536"
13,2,4,68,"X","9",0.757,"","peach","","2016_Nov_28_1536"
13,2,4,69,"Z","3",1.992,"","cherry","","2016_Nov_28_1536"
13,2,4,70,"Q","9",1.661,"","plum","","2016_Nov_28_1536"
13,2,4,71,"D","3",1.568,"banana","","","2016_Nov_28_1536"
13,2,4,72,"Y","1",1.927,"apple","","","2016_Nov_28_1536"
13,2,4,73,"D","3",1.552,"","banana","","2016_Nov_28_1536"
13,2,4,74,"P","9",1.365,"","strawberry","","2016_Nov_28_1536"
13,2,4,75,"X","9",1.067,"peach","","","2016_Nov_28_1536"
13,2,4,76,"A","10",0.786,"mango","","","2016_Nov_28_1536"
13,2,4,77,"Z","3",2.733,"cherry","","","2016_Nov_28_1536"
13,2,4,78,"E","1",1.208,"kiwi","","","2016_Nov_28_1536"
13,2,4,79,"B","5",2.333,"","orange","","2016_Nov_28_1536"
13,2,4,80,"Q","8",1.63,"plum","","","2016_Nov_28_1536"
13,2,5,81,"A","10",1.521,"","mango","","2016_Nov_28_1536"
13,2,5,82,"D","3",1.849,"","banana","","2016_Nov_28_1536"
13,2,5,83,"Q","9",1.239,"","plum","","2016_Nov_28_1536"
13,2,5,84,"A","10",0.927,"mango","","","2016_Nov_28_1536"
13,2,5,85,"E","1",1.679,"","kiwi","","2016_Nov_28_1536"
13,2,5,86,"C","1",0.757,"pear","","","2016_Nov_28_1536"
13,2,5,87,"X","9",2.106,"","peach","","2016_Nov_28_1536"
13,2,5,88,"B","5",1.71,"orange","","","2016_Nov_28_1536"
13,2,5,89,"P","9",1.036,"","strawberry","","2016_Nov_28_1536"
13,2,5,90,"P","9",0.867,"strawberry","","","2016_Nov_28_1536"
13,2,5,91,"E","1",1.349,"kiwi","","","2016_Nov_28_1536"
13,2,5,92,"Y","1",1.117,"apple","","","2016_Nov_28_1536"
13,2,5,93,"D","3",1.349,"banana","","","2016_Nov_28_1536"
13,2,5,94,"Z","3",0.632,"cherry","","","2016_Nov_28_1536"
13,2,5,95,"Z","3",1.27,"","cherry","","2016_Nov_28_1536"
13,2,5,96,"X","9",1.46,"peach","","","2016_Nov_28_1536"
13,2,5,97,"B","5",1.776,"","orange","","2016_Nov_28_1536"
13,2,5,98,"Q","9",1.771,"plum","","","2016_Nov_28_1536"
13,2,5,99,"Y","1",1.115,"","apple","","2016_Nov_28_1536"
13,2,5,100,"C","1",1.103,"","pear","","2016_Nov_28_1536"
13,2,6,101,"A","10",1.242,"","mango","","2016_Nov_28_1536"
13,2,6,102,"E","1",1.054,"kiwi","","","2016_Nov_28_1536"
13,2,6,103,"C","1",0.677,"","pear","","2016_Nov_28_1536"
13,2,6,104,"X","9",1.724,"peach","","","2016_Nov_28_1536"
13,2,6,105,"X","9",0.54,"","peach","","2016_Nov_28_1536"
13,2,6,106,"Z","3",1.849,"","cherry","","2016_Nov_28_1536"
13,2,6,107,"Q","9",0.945,"plum","","","2016_Nov_28_1536"
13,2,6,108,"Q","9",0.739,"","plum","","2016_Nov_28_1536"
13,2,6,109,"Y","1",1.271,"apple","","","2016_Nov_28_1536"
13,2,6,110,"Y","1",1.258,"","apple","","2016_Nov_28_1536"
13,2,6,111,"D","3",1.538,"banana","","","2016_Nov_28_1536"
13,2,6,112,"P","9",1.932,"","strawberry","","2016_Nov_28_1536"
13,2,6,113,"A","10",0.99,"mango","","","2016_Nov_28_1536"
13,2,6,114,"B","5",1.286,"","orange","","2016_Nov_28_1536"
13,2,6,115,"P","9",1.13,"strawberry","","","2016_Nov_28_1536"
13,2,6,116,"D","3",1.067,"","banana","","2016_Nov_28_1536"
13,2,6,117,"Z","3",1.708,"cherry","","","2016_Nov_28_1536"
13,2,6,118,"B","5",1.273,"orange","","","2016_Nov_28_1536"
13,2,6,119,"C","1",1.146,"pear","","","2016_Nov_28_1536"
13,2,6,120,"E","1",0.74,"","kiwi","","2016_Nov_28_1536"
14,2,1,1,"Z","4",10.349,"","orange","","2016_Nov_28_1613"
14,2,1,2,"B","4",3.976,"apple","","","2016_Nov_28_1613"
14,2,1,3,"X","9",3.456,"strawberry","","","2016_Nov_28_1613"
14,2,1,4,"Z","4",1.786,"orange","","","2016_Nov_28_1613"
14,2,1,5,"C","5",1.99,"pear","","","2016_Nov_28_1613"
14,2,1,6,"A","10",1.762,"plum","","","2016_Nov_28_1613"
14,2,1,7,"E","6",1.802,"mango","","","2016_Nov_28_1613"
14,2,1,8,"Y","6",1.569,"","cherry","","2016_Nov_28_1613"
14,2,1,9,"X","9",2.288,"","strawberry","","2016_Nov_28_1613"
14,2,1,10,"Q","10",1.677,"kiwi","","","2016_Nov_28_1613"
14,2,1,11,"P","10",0.614,"","banana","","2016_Nov_28_1613"
14,2,1,12,"P","10",0.739,"banana","","","2016_Nov_28_1613"
14,2,1,13,"A","10",0.772,"","plum","","2016_Nov_28_1613"
14,2,1,14,"E","4",1.864,"","mango","","2016_Nov_28_1613"
14,2,1,15,"D","4",1.63,"peach","","","2016_Nov_28_1613"
14,2,1,16,"C","6",1.601,"","pear","","2016_Nov_28_1613"
14,2,1,17,"D","4",1.24,"","peach","","2016_Nov_28_1613"
14,2,1,18,"Q","10",1.989,"","kiwi","","2016_Nov_28_1613"
14,2,1,19,"B","3",2.536,"","apple","","2016_Nov_28_1613"
14,2,1,20,"Y","7",1.976,"cherry","","","2016_Nov_28_1613"
14,2,2,21,"D","4",1.836,"","peach","","2016_Nov_28_1613"
14,2,2,22,"Y","6",3.87,"","cherry","","2016_Nov_28_1613"
14,2,2,23,"Q","10",2.321,"","kiwi","","2016_Nov_28_1613"
14,2,2,24,"P","10",1.255,"banana","","","2016_Nov_28_1613"
14,2,2,25,"P","10",0.632,"","banana","","2016_Nov_28_1613"
14,2,2,26,"X","10",0.615,"","strawberry","","2016_Nov_28_1613"
14,2,2,27,"A","10",0.88,"plum","","","2016_Nov_28_1613"
14,2,2,28,"D","3",1.599,"peach","","","2016_Nov_28_1613"
14,2,2,29,"C","6",1.333,"pear","","","2016_Nov_28_1613"
14,2,2,30,"B","6",1.505,"","apple","","2016_Nov_28_1613"
14,2,2,31,"B","6",0.647,"apple","","","2016_Nov_28_1613"
14,2,2,32,"Z","6",2.099,"orange","","","2016_Nov_28_1613"
14,2,2,33,"X","10",1.601,"strawberry","","","2016_Nov_28_1613"
14,2,2,34,"A","10",0.724,"","plum","","2016_Nov_28_1613"
14,2,2,35,"Y","6",1.411,"cherry","","","2016_Nov_28_1613"
14,2,2,36,"C","7",1.458,"","pear","","2016_Nov_28_1613"
14,2,2,37,"Q","10",1.224,"kiwi","","","2016_Nov_28_1613"
14,2,2,38,"E","4",1.989,"","mango","","2016_Nov_28_1613"
14,2,2,39,"E","4",0.864,"mango","","","2016_Nov_28_1613"
14,2,2,40,"Z","6",2.052,"","orange","","2016_Nov_28_1613"
14,2,3,41,"E","6",1.4,"","mango","","2016_Nov_28_1613"
14,2,3,42,"B","7",1.74,"apple","","","2016_Nov_28_1613"
14,2,3,43,"X","10",1.602,"","strawberry","","2016_Nov_28_1613"
14,2,3,44,"D","4",1.583,"","peach","","2016_Nov_28_1613"
14,2,3,45,"D","4",0.943,"peach","","","2016_Nov_28_1613"
14,2,3,46,"Z","3",1.835,"","orange","","2016_Nov_28_1613"
14,2,3,47,"A","10",1.649,"plum","","","2016_Nov_28_1613"
14,2,3,48,"Y","10",0.927,"","cherry","","2016_Nov_28_1613"
14,2,3,49,"B","4",1.583,"","apple","","2016_Nov_28_1613"
14,2,3,50,"Q","10",1.318,"kiwi","","","2016_Nov_28_1613"
14,2,3,51,"X","10",0.677,"strawberry","","","2016_Nov_28_1613"
14,2,3,52,"Q","10",0.991,"","kiwi","","2016_Nov_28_1613"
14,2,3,53,"E","4",1.147,"mango","","","2016_Nov_28_1613"
14,2,3,54,"A","10",1.068,"","plum","","2016_Nov_28_1613"
14,2,3,55,"P","10",0.615,"","banana","","2016_Nov_28_1613"
14,2,3,56,"Z","4",0.974,"orange","","","2016_Nov_28_1613"
14,2,3,57,"P","10",1.46,"banana","","","2016_Nov_28_1613"
14,2,3,58,"Y","4",1.647,"cherry","","","2016_Nov_28_1613"
14,2,3,59,"C","6",2.208,"","pear","","2016_Nov_28_1613"
14,2,3,60,"C","6",0.786,"pear","","","2016_Nov_28_1613"
14,2,4,61,"B","7",1.318,"apple","","","2016_Nov_28_1613"
14,2,4,62,"B","7",0.614,"","apple","","2016_Nov_28_1613"
14,2,4,63,"A","10",1.132,"","plum","","2016_Nov_28_1613"
14,2,4,64,"D","3",1.809,"peach","","","2016_Nov_28_1613"
14,2,4,65,"X","10",1.13,"strawberry","","","2016_Nov_28_1613"
14,2,4,66,"Q","10",1.661,"kiwi","","","2016_Nov_28_1613"
14,2,4,67,"Y","6",1.833,"","cherry","","2016_Nov_28_1613"
14,2,4,68,"P","10",1.084,"banana","","","2016_Nov_28_1613"
14,2,4,69,"P","10",0.974,"","banana","","2016_Nov_28_1613"
14,2,4,70,"C","6",1.161,"","pear","","2016_Nov_28_1613"
14,2,4,71,"A","10",0.991,"plum","","","2016_Nov_28_1613"
14,2,4,72,"C","4",1.606,"pear","","","2016_Nov_28_1613"
14,2,4,73,"E","6",1.661,"mango","","","2016_Nov_28_1613"
14,2,4,74,"E","6",1.052,"","mango","","2016_Nov_28_1613"
14,2,4,75,"Q","10",1.271,"","kiwi","","2016_Nov_28_1613"
14,2,4,76,"Z","4",1.739,"","orange","","2016_Nov_28_1613"
14,2,4,77,"X","10",0.911,"","strawberry","","2016_Nov_28_1613"
14,2,4,78,"D","4",1.927,"","peach","","2016_Nov_28_1613"
14,2,4,79,"Y","4",1.317,"cherry","","","2016_Nov_28_1613"
14,2,4,80,"Z","4",2.645,"orange","","","2016_Nov_28_1613"
14,2,5,81,"C","7",1.849,"pear","","","2016_Nov_28_1613"
14,2,5,82,"X","10",1.241,"strawberry","","","2016_Nov_28_1613"
14,2,5,83,"E","6",1.646,"mango","","","2016_Nov_28_1613"
14,2,5,84,"C","6",1.864,"","pear","","2016_Nov_28_1613"
14,2,5,85,"E","7",2.756,"","mango","","2016_Nov_28_1613"
14,2,5,86,"X","10",1.258,"","strawberry","","2016_Nov_28_1613"
14,2,5,87,"D","6",1.351,"","peach","","2016_Nov_28_1613"
14,2,5,88,"Q","10",1.268,"kiwi","","","2016_Nov_28_1613"
14,2,5,89,"A","10",0.645,"","plum","","2016_Nov_28_1613"
14,2,5,90,"Y","6",1.739,"","cherry","","2016_Nov_28_1613"
14,2,5,91,"P","10",1.005,"","banana","","2016_Nov_28_1613"
14,2,5,92,"Y","6",0.992,"cherry","","","2016_Nov_28_1613"
14,2,5,93,"B","7",1.755,"","apple","","2016_Nov_28_1613"
14,2,5,94,"D","4",2.052,"peach","","","2016_Nov_28_1613"
14,2,5,95,"A","10",1.13,"plum","","","2016_Nov_28_1613"
14,2,5,96,"Z","4",1.771,"","orange","","2016_Nov_28_1613"
14,2,5,97,"Z","4",0.724,"orange","","","2016_Nov_28_1613"
14,2,5,98,"P","10",1.289,"banana","","","2016_Nov_28_1613"
14,2,5,99,"B","4",1.694,"apple","","","2016_Nov_28_1613"
14,2,5,100,"Q","10",1.333,"","kiwi","","2016_Nov_28_1613"
14,2,6,101,"A","10",0.818,"plum","","","2016_Nov_28_1613"
14,2,6,102,"D","4",1.458,"","peach","","2016_Nov_28_1613"
14,2,6,103,"Y","4",1.288,"cherry","","","2016_Nov_28_1613"
14,2,6,104,"Q","10",1.086,"kiwi","","","2016_Nov_28_1613"
14,2,6,105,"E","6",1.443,"mango","","","2016_Nov_28_1613"
14,2,6,106,"P","9",1.114,"banana","","","2016_Nov_28_1613"
14,2,6,107,"B","4",1.599,"","apple","","2016_Nov_28_1613"
14,2,6,108,"D","6",1.553,"peach","","","2016_Nov_28_1613"
14,2,6,109,"Y","7",1.259,"","cherry","","2016_Nov_28_1613"
14,2,6,110,"C","7",0.989,"","pear","","2016_Nov_28_1613"
14,2,6,111,"P","10",1.101,"","banana","","2016_Nov_28_1613"
14,2,6,112,"Z","4",1.526,"","orange","","2016_Nov_28_1613"
14,2,6,113,"Q","10",1.385,"","kiwi","","2016_Nov_28_1613"
14,2,6,114,"E","6",1.177,"","mango","","2016_Nov_28_1613"
14,2,6,115,"X","10",1.052,"strawberry","","","2016_Nov_28_1613"
14,2,6,116,"A","10",1.288,"","plum","","2016_Nov_28_1613"
14,2,6,117,"B","6",1.864,"apple","","","2016_Nov_28_1613"
14,2,6,118,"Z","3",3.099,"orange","","","2016_Nov_28_1613"
14,2,6,119,"X","10",1.114,"","strawberry","","2016_Nov_28_1613"
14,2,6,120,"C","4",1.476,"pear","","","2016_Nov_28_1613"
15,2,1,1,"E","7",7.635,"","pear","","2016_Nov_28_1515"
15,2,1,2,"D","6",3.177,"cherry","","","2016_Nov_28_1515"
15,2,1,3,"A","10",1.771,"apple","","","2016_Nov_28_1515"
15,2,1,4,"Y","1",1.614,"strawberry","","","2016_Nov_28_1515"
15,2,1,5,"C","5",2.399,"mango","","","2016_Nov_28_1515"
15,2,1,6,"Y","5",2.523,"","strawberry","","2016_Nov_28_1515"
15,2,1,7,"X","8",2.286,"","plum","","2016_Nov_28_1515"
15,2,1,8,"A","10",1.396,"","apple","","2016_Nov_28_1515"
15,2,1,9,"Q","6",5.302,"kiwi","","","2016_Nov_28_1515"
15,2,1,10,"B","5",1.739,"","peach","","2016_Nov_28_1515"
15,2,1,11,"Z","6",2.349,"banana","","","2016_Nov_28_1515"
15,2,1,12,"D","5",2.365,"","cherry","","2016_Nov_28_1515"
15,2,1,13,"Q","2",2.99,"","kiwi","","2016_Nov_28_1515"
15,2,1,14,"Z","3",3.146,"","banana","","2016_Nov_28_1515"
15,2,1,15,"E","8",2.474,"pear","","","2016_Nov_28_1515"
15,2,1,16,"B","4",1.583,"peach","","","2016_Nov_28_1515"
15,2,1,17,"C","6",1.927,"","mango","","2016_Nov_28_1515"
15,2,1,18,"X","8",2.161,"plum","","","2016_Nov_28_1515"
15,2,1,19,"P","4",2.177,"","orange","","2016_Nov_28_1515"
15,2,1,20,"P","7",3.083,"orange","","","2016_Nov_28_1515"
15,2,2,21,"A","9",1.866,"","apple","","2016_Nov_28_1515"
15,2,2,22,"B","4",2.742,"","peach","","2016_Nov_28_1515"
15,2,2,23,"B","6",2.179,"peach","","","2016_Nov_28_1515"
15,2,2,24,"Z","7",3.302,"","banana","","2016_Nov_28_1515"
15,2,2,25,"P","3",3.63,"","orange","","2016_Nov_28_1515"
15,2,2,26,"D","6",2.474,"cherry","","","2016_Nov_28_1515"
15,2,2,27,"E","3",2.304,"pear","","","2016_Nov_28_1515"
15,2,2,28,"X","8",3.882,"plum","","","2016_Nov_28_1515"
15,2,2,29,"C","7",4.646,"","mango","","2016_Nov_28_1515"
15,2,2,30,"E","8",2.208,"","pear","","2016_Nov_28_1515"
15,2,2,31,"D","3",1.396,"","cherry","","2016_Nov_28_1515"
15,2,2,32,"Y","3",2.021,"","strawberry","","2016_Nov_28_1515"
15,2,2,33,"X","8",1.068,"","plum","","2016_Nov_28_1515"
15,2,2,34,"P","2",1.255,"orange","","","2016_Nov_28_1515"
15,2,2,35,"Q","5",1.38,"kiwi","","","2016_Nov_28_1515"
15,2,2,36,"Z","3",2.974,"banana","","","2016_Nov_28_1515"
15,2,2,37,"A","10",1.708,"apple","","","2016_Nov_28_1515"
15,2,2,38,"Y","7",1.696,"strawberry","","","2016_Nov_28_1515"
